sid,trial,condition,stage,blockTrial,family,D1,D2,category,choice,correct,switch,rt
0,1,0,0,0,2,5,1,3,6,0,1,1776
0,2,0,0,1,2,2,4,3,8,0,0,2095
0,3,0,0,2,2,1,6,3,6,0,0,1201
0,4,0,0,3,2,3,2,3,6,1,0,1715
0,5,0,0,4,2,2,1,3,8,0,0,1531
0,6,0,0,5,2,4,4,3,6,1,0,805
0,7,0,0,6,2,6,4,3,6,0,0,777
0,8,0,0,7,2,4,5,3,6,0,0,743
0,9,0,0,8,2,5,5,3,6,0,0,1070
0,10,0,0,9,2,4,6,3,8,1,0,619
0,11,0,0,10,2,3,2,3,8,0,0,1307
0,12,0,0,11,2,4,2,3,8,0,0,1471
0,13,0,0,12,2,6,4,3,6,0,0,1327
0,14,0,0,13,2,6,3,3,6,0,0,1537
0,15,0,0,14,2,1,5,3,6,0,0,635
0,16,0,0,0,4,3,3,4,2,1,1,1373
0,17,0,0,1,4,6,5,4,3,1,0,1695
0,18,0,0,2,4,5,1,4,3,1,0,2827
0,19,0,0,3,4,3,6,4,2,1,0,3497
0,20,0,0,4,4,6,1,4,3,0,0,1406
0,21,0,0,5,4,5,3,4,3,1,0,1725
0,22,0,0,6,4,3,4,4,2,0,0,1851
0,23,0,0,7,4,4,3,4,3,0,0,1459
0,24,0,0,8,4,5,2,4,3,1,0,1007
0,25,0,0,9,4,6,1,4,2,1,0,1487
0,26,0,0,10,4,5,5,4,3,1,0,2683
0,27,0,0,11,4,2,4,4,3,1,0,1607
0,28,0,0,12,4,6,4,4,3,1,0,1672
0,29,0,0,13,4,2,2,4,3,1,0,1299
0,30,0,0,14,4,3,3,4,2,1,0,1323
0,31,0,0,0,1,1,1,2,1,1,1,1478
0,32,0,0,1,1,2,5,2,5,0,0,1398
0,33,0,0,2,1,5,5,2,1,0,0,1615
0,34,0,0,3,1,2,3,2,1,1,0,2057
0,35,0,0,4,1,5,6,2,5,1,0,1477
0,36,0,0,5,1,6,3,2,5,1,0,1339
0,37,0,0,6,1,6,6,2,5,1,0,1236
0,38,0,0,7,1,4,3,2,5,1,0,1167
0,39,0,0,8,1,4,5,2,5,1,0,1204
0,40,0,0,9,1,6,4,2,1,0,0,1479
0,41,0,0,10,1,1,5,2,1,1,0,1141
0,42,0,0,11,1,2,6,2,1,1,0,1439
0,43,0,0,12,1,2,3,2,5,0,0,1643
0,44,0,0,13,1,5,2,2,5,1,0,1156
0,45,0,0,14,1,4,3,2,5,1,0,764
0,46,0,0,0,3,6,1,1,7,0,1,2444
0,47,0,0,1,3,4,1,1,4,1,0,1249
0,48,0,0,2,3,6,1,1,4,1,0,820
0,49,0,0,3,3,5,1,1,4,1,0,1020
0,50,0,0,4,3,3,1,1,4,1,0,784
0,51,0,0,5,3,5,1,1,4,1,0,1134
0,52,0,0,6,3,1,1,1,7,1,0,1657
0,53,0,0,7,3,5,1,1,4,1,0,1026
0,54,0,0,8,3,4,1,1,4,1,0,855
0,55,0,0,9,3,1,1,1,7,1,0,1627
0,56,0,0,10,3,5,1,1,4,1,0,777
0,57,0,0,11,3,4,1,1,4,1,0,679
0,58,0,0,12,3,5,1,1,4,1,0,925
0,59,0,0,13,3,1,1,1,7,1,0,1772
0,60,0,0,14,3,4,1,1,4,1,0,795
0,61,0,1,0,4,4,2,4,3,0,1,2763
0,62,0,1,1,4,4,6,4,2,1,0,1428
0,63,0,1,2,4,1,5,4,3,1,0,1949
0,64,0,1,3,4,5,5,4,3,0,0,1438
0,65,0,1,4,4,3,4,4,3,1,0,2059
0,66,0,1,5,4,6,4,4,3,1,0,2356
0,67,0,1,6,4,5,6,4,2,1,0,1152
0,68,0,1,7,4,2,1,4,3,1,0,4974
0,69,0,1,8,4,4,4,4,2,0,0,4090
0,70,0,1,9,4,5,2,4,2,0,0,1528
0,71,0,1,10,4,4,2,4,3,0,0,1274
0,72,0,1,11,4,1,3,4,3,0,0,2616
0,73,0,1,12,4,5,3,4,3,1,0,1258
0,74,0,1,13,4,3,3,4,2,0,0,1174
0,75,0,1,14,4,1,4,4,2,0,0,1870
0,76,0,1,15,4,3,2,4,3,0,0,970
0,77,0,1,16,4,5,1,4,3,0,0,408
0,78,0,1,17,4,6,3,4,3,0,0,1220
0,79,0,1,18,4,6,5,4,3,1,0,1017
0,80,0,1,19,4,1,2,4,3,1,0,1019
0,81,0,1,20,4,1,6,4,3,0,0,1267
0,82,0,1,21,4,5,2,4,3,0,0,1111
0,83,0,1,22,4,3,3,4,3,1,0,1830
0,84,0,1,23,4,1,3,4,3,1,0,1325
0,85,0,1,24,4,4,3,4,3,1,0,1337
0,86,0,1,25,4,1,4,4,3,0,0,1390
0,87,0,1,26,4,4,3,4,3,1,0,1094
0,88,0,1,27,4,4,1,4,2,0,0,1383
0,89,0,1,28,4,3,1,4,3,0,0,2446
0,90,0,1,29,4,4,2,4,3,1,0,1601
0,91,0,1,30,4,1,2,4,3,1,0,1467
0,92,0,1,31,4,2,5,4,3,1,0,1722
0,93,0,1,32,4,6,1,4,3,1,0,2307
0,94,0,1,0,2,6,4,3,8,1,1,2724
0,95,0,1,1,2,2,4,3,8,0,0,1569
0,96,0,1,2,2,2,6,3,6,0,0,2315
0,97,0,1,3,2,4,4,3,8,0,0,2002
0,98,0,1,4,2,3,4,3,6,1,0,1994
0,99,0,1,5,2,1,4,3,6,1,0,1269
0,100,0,1,6,2,1,4,3,6,1,0,1259
0,101,0,1,7,2,1,2,3,8,0,0,1591
0,102,0,1,8,2,1,3,3,6,1,0,1046
0,103,0,1,9,2,2,5,3,8,1,0,1411
0,104,0,1,10,2,2,4,3,6,1,0,947
0,105,0,1,11,2,6,4,3,6,0,0,801
0,106,0,1,12,2,1,2,3,6,1,0,1886
0,107,0,1,13,2,3,2,3,6,1,0,1049
0,108,0,1,14,2,6,6,3,8,1,0,1620
0,109,0,1,15,2,1,4,3,6,1,0,1577
0,110,0,1,16,2,1,4,3,6,1,0,1080
0,111,0,1,17,2,3,2,3,8,0,0,3669
0,112,0,1,18,2,4,6,3,8,1,0,1422
0,113,0,1,19,2,2,1,3,8,0,0,1461
0,114,0,1,20,2,1,5,3,8,1,0,3418
0,115,0,1,21,2,1,1,3,6,1,0,1648
0,116,0,1,22,2,4,5,3,6,0,0,1236
0,117,0,1,23,2,6,4,3,6,0,0,982
0,118,0,1,24,2,1,2,3,6,1,0,1746
0,119,0,1,25,2,3,6,3,8,1,0,1151
0,120,0,1,26,2,2,2,3,6,1,0,1493
0,121,0,1,27,2,2,5,3,8,1,0,1423
0,122,0,1,28,2,2,4,3,6,1,0,1179
0,123,0,1,29,2,6,4,3,6,0,0,956
0,124,0,1,30,2,5,1,3,6,0,0,1661
0,125,0,1,31,2,6,1,3,6,0,0,2499
0,126,0,1,32,2,4,1,3,6,1,0,2001
0,127,0,1,33,2,1,1,3,6,1,0,2300
0,128,0,1,34,2,6,2,3,8,1,0,1928
0,129,0,1,35,2,2,1,3,6,1,0,3107
0,130,0,1,36,2,1,6,3,8,1,0,1631
0,131,0,1,37,2,5,6,3,8,1,0,1599
0,132,0,1,38,2,1,6,3,8,1,0,1531
0,133,0,1,39,2,3,6,3,8,1,0,1454
0,134,0,1,40,2,5,5,3,8,1,0,1631
0,135,0,1,41,2,6,2,3,6,0,0,2028
0,136,0,1,42,2,3,1,3,6,1,0,2166
0,137,0,1,43,2,3,5,3,8,1,0,1786
0,138,0,1,44,2,4,1,3,6,1,0,2455
0,139,0,1,45,2,3,4,3,6,1,0,1563
0,140,0,1,46,2,1,5,3,8,1,0,1555
0,141,0,1,47,2,6,1,3,8,1,0,1454
0,142,0,1,48,2,3,3,3,6,1,0,1950
0,143,0,1,49,2,2,5,3,8,1,0,1671
0,144,0,1,50,2,3,4,3,6,1,0,1360
0,145,0,1,51,2,4,4,3,6,1,0,1641
0,146,0,1,52,2,1,2,3,8,0,0,6876
0,147,0,1,53,2,3,6,3,8,1,0,1893
0,148,0,1,54,2,2,1,3,6,1,0,2588
0,149,0,1,55,2,2,4,3,6,1,0,1361
0,150,0,1,56,2,3,2,3,6,1,0,1445
0,151,0,1,57,2,1,6,3,8,1,0,1299
0,152,0,1,58,2,3,6,3,8,1,0,1063
0,153,0,1,59,2,4,4,3,6,1,0,1414
0,154,0,1,60,2,3,5,3,6,0,0,1127
0,155,0,1,61,2,1,2,3,6,1,0,1256
0,156,0,1,62,2,3,2,3,6,1,0,1742
0,157,0,1,63,2,2,3,3,6,1,0,1071
0,158,0,1,64,2,1,4,3,8,0,0,1701
0,159,0,1,65,2,1,5,3,8,1,0,1526
0,160,0,1,66,2,2,1,3,6,1,0,1376
0,161,0,1,67,2,4,6,3,8,1,0,1514
0,162,0,1,0,1,1,5,2,5,0,1,2776
0,163,0,1,1,1,1,6,2,1,1,0,2104
0,164,0,1,2,1,5,3,2,5,1,0,1041
0,165,0,1,3,1,4,4,2,5,1,0,1508
0,166,0,1,4,1,5,4,2,5,1,0,932
0,167,0,1,5,1,3,2,2,5,0,0,1034
0,168,0,1,6,1,4,3,2,5,1,0,1107
0,169,0,1,7,1,4,5,2,5,1,0,1078
0,170,0,1,8,1,6,1,2,5,1,0,1072
0,171,0,1,9,1,4,6,2,5,1,0,1174
0,172,0,1,10,1,4,5,2,5,1,0,1025
0,173,0,1,11,1,6,6,2,5,1,0,1376
0,174,0,1,12,1,3,5,2,1,1,0,1283
0,175,0,1,13,1,5,1,2,5,1,0,1221
0,176,0,1,14,1,1,1,2,1,1,0,1352
0,177,0,1,15,1,5,5,2,5,1,0,1249
0,178,0,1,0,4,6,2,4,3,0,1,1543
0,179,0,1,1,4,6,2,4,2,1,0,983
0,180,0,1,2,4,6,4,4,2,1,0,2044
0,181,0,1,3,4,6,3,4,2,0,0,1180
0,182,0,1,4,4,2,2,4,3,1,0,1578
0,183,0,1,5,4,4,1,4,2,1,0,8187
0,184,0,1,6,4,2,2,4,3,0,0,14778
0,185,0,1,7,4,2,5,4,2,1,0,1145
0,186,0,1,8,4,1,3,4,3,0,0,1211
0,187,0,1,9,4,4,3,4,2,1,0,7734
0,188,0,1,10,4,1,1,4,3,0,0,955
0,189,0,1,11,4,4,5,4,3,0,0,1169
0,190,0,1,12,4,6,4,4,3,0,0,1269
0,191,0,1,13,4,6,1,4,3,0,0,1814
0,192,0,1,14,4,6,2,4,2,0,0,1178
0,193,0,1,15,4,1,3,4,3,0,0,2569
0,194,0,1,16,4,2,6,4,2,1,0,1364
0,195,0,1,17,4,3,4,4,2,1,0,969
0,196,0,1,18,4,3,6,4,2,1,0,1307
0,197,0,1,19,4,5,3,4,2,0,0,1084
0,198,0,1,20,4,1,5,4,3,0,0,1254
0,199,0,1,21,4,5,4,4,3,0,0,1374
0,200,0,1,22,4,6,2,4,2,0,0,827
0,201,0,1,0,2,1,6,3,8,1,1,1792
0,202,0,1,1,2,2,3,3,8,0,0,3534
0,203,0,1,2,2,6,2,3,8,1,0,1375
0,204,0,1,3,2,1,5,3,8,1,0,1313
0,205,0,1,4,2,4,5,3,8,1,0,1740
0,206,0,1,5,2,1,5,3,8,1,0,1353
0,207,0,1,6,2,1,6,3,8,1,0,1072
0,208,0,1,7,2,2,5,3,8,1,0,2082
0,209,0,1,8,2,4,3,3,6,1,0,1958
0,210,0,1,9,2,5,4,3,6,0,0,1196
0,211,0,1,10,2,5,2,3,8,1,0,1484
0,212,0,1,11,2,2,2,3,6,1,0,1348
0,213,0,1,12,2,1,3,3,8,0,0,1282
0,214,0,1,13,2,5,5,3,8,1,0,1366
0,215,0,1,14,2,2,2,3,6,1,0,1544
0,216,0,1,15,2,5,3,3,8,1,0,1842
0,217,0,1,16,2,1,6,3,8,1,0,955
0,218,0,1,17,2,6,3,3,8,1,0,1010
0,219,0,1,18,2,1,2,3,8,0,0,1999
0,220,0,1,19,2,3,1,3,6,1,0,1861
0,221,0,1,20,2,5,4,3,8,1,0,1499
0,222,0,1,21,2,6,5,3,8,1,0,4600
0,223,0,1,22,2,4,1,3,6,1,0,2330
0,224,0,1,23,2,4,1,3,6,1,0,894
0,225,0,1,24,2,4,3,3,6,1,0,1414
0,226,0,1,25,2,6,2,3,8,1,0,1236
0,227,0,1,26,2,6,4,3,8,1,0,986
0,228,0,1,27,2,4,2,3,6,1,0,1578
0,229,0,1,28,2,1,4,3,8,0,0,1220
0,230,0,1,29,2,4,6,3,8,1,0,945
0,231,0,1,30,2,1,4,3,6,1,0,1406
0,232,0,1,31,2,5,5,3,8,1,0,1740
0,233,0,1,32,2,5,6,3,8,1,0,1195
0,234,0,1,33,2,4,2,3,6,1,0,1408
0,235,0,1,34,2,3,1,3,6,1,0,1390
0,236,0,1,35,2,2,4,3,6,1,0,1413
0,237,0,1,36,2,2,1,3,6,1,0,934
0,238,0,1,37,2,5,6,3,8,1,0,1078
0,239,0,1,38,2,6,5,3,8,1,0,832
0,240,0,1,39,2,3,5,3,8,1,0,1452
0,241,0,1,40,2,4,2,3,6,1,0,2720
0,242,0,1,41,2,3,6,3,8,1,0,1127
0,243,0,1,42,2,2,4,3,6,1,0,1072
0,244,0,1,43,2,5,2,3,8,1,0,1400
0,245,0,1,44,2,5,4,3,8,1,0,1165
0,246,0,1,45,2,5,6,3,8,1,0,871
0,247,0,1,46,2,6,5,3,8,1,0,823
0,248,0,1,47,2,1,3,3,6,1,0,1578
0,249,0,1,48,2,4,3,3,6,1,0,1218
0,250,0,1,49,2,2,5,3,8,1,0,1570
0,251,0,1,50,2,2,4,3,6,1,0,1002
0,252,0,1,51,2,6,6,3,8,1,0,1055
0,253,0,1,52,2,5,2,3,8,1,0,2648
0,254,0,1,53,2,2,6,3,8,1,0,1117
0,255,0,1,54,2,6,6,3,8,1,0,847
0,256,0,1,55,2,4,6,3,8,1,0,1335
0,257,0,1,56,2,3,2,3,6,1,0,1407
0,258,0,1,57,2,2,1,3,6,1,0,1149
0,259,0,1,58,2,3,3,3,6,1,0,977
0,260,0,1,59,2,1,5,3,8,1,0,1080
0,261,0,1,60,2,6,6,3,8,1,0,799
0,262,0,1,61,2,5,4,3,8,1,0,2113
0,263,0,1,62,2,1,5,3,6,0,0,1996
0,264,0,1,63,2,4,5,3,8,1,0,1411
0,265,0,1,64,2,5,6,3,8,1,0,964
0,266,0,1,65,2,3,1,3,6,1,0,1156
0,267,0,1,66,2,5,6,3,8,1,0,948
0,268,0,1,67,2,5,2,3,8,1,0,1298
0,269,0,1,68,2,3,5,3,8,1,0,1513
0,270,0,1,69,2,5,1,3,8,1,0,1413
0,271,0,1,70,2,3,4,3,6,1,0,2135
0,272,0,1,71,2,6,6,3,8,1,0,902
0,273,0,1,72,2,2,6,3,8,1,0,1165
0,274,0,1,73,2,3,2,3,6,1,0,1312
0,275,0,1,74,2,4,2,3,6,1,0,1182
0,276,0,1,75,2,5,5,3,8,1,0,939
0,277,0,1,76,2,1,5,3,8,1,0,1079
0,278,0,1,77,2,2,5,3,8,1,0,948
0,279,0,1,78,2,6,2,3,8,1,0,1017
0,280,0,1,79,2,6,6,3,8,1,0,722
0,281,0,1,80,2,5,4,3,8,1,0,1452
0,282,0,1,81,2,1,2,3,6,1,0,1229
0,283,0,1,82,2,5,4,3,8,1,0,932
0,284,0,1,83,2,6,1,3,8,1,0,1118
0,285,0,1,84,2,3,4,3,6,1,0,1443
0,286,0,1,85,2,1,1,3,6,1,0,1492
0,287,0,1,86,2,1,2,3,6,1,0,1530
0,288,0,1,87,2,4,4,3,6,1,0,3784
0,289,0,1,88,2,5,5,3,8,1,0,2148
0,290,0,1,89,2,4,3,3,6,1,0,2837
0,291,0,1,90,2,3,2,3,6,1,0,1219
0,292,0,1,91,2,4,1,3,6,1,0,1212
0,293,0,1,92,2,4,4,3,8,0,0,1056
0,294,0,1,93,2,4,6,3,8,1,0,999
0,295,0,1,94,2,2,3,3,6,1,0,1179
0,296,0,1,95,2,1,3,3,6,1,0,1335
0,297,0,1,96,2,2,5,3,8,1,0,2417
0,298,0,1,97,2,5,6,3,8,1,0,1007
0,299,0,1,98,2,5,1,3,8,1,0,1384
0,300,0,1,99,2,1,3,3,6,1,0,1467
0,301,0,1,100,2,3,2,3,6,1,0,977
0,302,0,1,101,2,5,1,3,8,1,0,1553
0,303,0,1,102,2,3,3,3,6,1,0,1631
0,304,0,1,103,2,2,4,3,6,1,0,1142
0,305,0,1,104,2,3,1,3,6,1,0,1125
0,306,0,1,105,2,2,1,3,6,1,0,918
0,307,0,1,106,2,3,4,3,6,1,0,1258
0,308,0,1,107,2,4,5,3,8,1,0,1437
0,309,0,1,108,2,2,3,3,6,1,0,877
0,310,0,1,109,2,1,3,3,6,1,0,730
1,1,0,0,0,1,4,1,1,3,0,1,1203
1,2,0,0,1,1,2,1,1,2,0,0,1189
1,3,0,0,2,1,1,1,1,3,1,0,1347
1,4,0,0,3,1,2,1,1,3,1,0,1063
1,5,0,0,4,1,5,1,1,3,0,0,1011
1,6,0,0,5,1,5,1,1,2,1,0,1515
1,7,0,0,6,1,4,1,1,3,0,0,1160
1,8,0,0,7,1,1,1,1,2,0,0,682
1,9,0,0,8,1,6,1,1,2,1,0,1149
1,10,0,0,9,1,2,1,1,3,1,0,1128
1,11,0,0,10,1,6,1,1,2,1,0,954
1,12,0,0,11,1,1,1,1,3,1,0,895
1,13,0,0,12,1,5,1,1,2,1,0,1005
1,14,0,0,13,1,4,1,1,2,1,0,1137
1,15,0,0,14,1,5,1,1,2,1,0,856
1,16,0,0,0,3,3,3,2,7,1,1,929
1,17,0,0,1,3,1,1,2,4,0,0,1283
1,18,0,0,2,3,3,6,2,7,1,0,628
1,19,0,0,3,3,3,6,2,7,1,0,520
1,20,0,0,4,3,4,2,2,7,0,0,825
1,21,0,0,5,3,3,5,2,7,1,0,1508
1,22,0,0,6,3,6,4,2,7,0,0,1406
1,23,0,0,7,3,6,2,2,7,0,0,2730
1,24,0,0,8,3,4,2,2,4,1,0,1988
1,25,0,0,9,3,1,1,2,7,1,0,1881
1,26,0,0,10,3,2,3,2,7,1,0,1312
1,27,0,0,11,3,2,3,2,7,1,0,1186
1,28,0,0,12,3,4,2,2,4,1,0,1074
1,29,0,0,13,3,2,4,2,7,1,0,1064
1,30,0,0,14,3,4,2,2,4,1,0,1045
1,31,0,0,0,4,5,5,4,1,0,1,2449
1,32,0,0,1,4,4,1,4,1,0,0,2055
1,33,0,0,2,4,6,2,4,1,0,0,1341
1,34,0,0,3,4,5,6,4,1,1,0,1308
1,35,0,0,4,4,2,4,4,1,1,0,1565
1,36,0,0,5,4,5,1,4,5,1,0,1439
1,37,0,0,6,4,3,2,4,1,1,0,1246
1,38,0,0,7,4,3,3,4,1,1,0,1155
1,39,0,0,8,4,6,2,4,5,1,0,1052
1,40,0,0,9,4,6,2,4,5,0,0,778
1,41,0,0,10,4,1,2,4,1,1,0,1909
1,42,0,0,11,4,5,5,4,5,0,0,1265
1,43,0,0,12,4,2,5,4,1,1,0,1308
1,44,0,0,13,4,2,2,4,5,1,0,1243
1,45,0,0,14,4,4,3,4,1,1,0,1248
1,46,0,0,0,2,5,3,3,6,0,1,1244
1,47,0,0,1,2,2,3,3,8,0,0,1135
1,48,0,0,2,2,3,1,3,6,1,0,1464
1,49,0,0,3,2,6,5,3,8,1,0,1492
1,50,0,0,4,2,1,2,3,8,0,0,1258
1,51,0,0,5,2,4,5,3,8,1,0,1425
1,52,0,0,6,2,5,5,3,8,1,0,1047
1,53,0,0,7,2,2,4,3,6,1,0,1537
1,54,0,0,8,2,3,2,3,6,1,0,1241
1,55,0,0,9,2,4,3,3,6,1,0,1120
1,56,0,0,10,2,5,6,3,8,1,0,1215
1,57,0,0,11,2,6,1,3,6,0,0,1165
1,58,0,0,12,2,5,2,3,8,1,0,2550
1,59,0,0,13,2,1,2,3,6,1,0,1227
1,60,0,0,14,2,6,4,3,8,1,0,1428
1,61,0,1,0,2,6,3,3,6,0,1,5966
1,62,0,1,0,1,1,1,1,3,1,1,2375
1,63,0,1,1,1,3,1,1,2,1,0,1209
1,64,0,1,2,1,4,1,1,2,1,0,1339
1,65,0,1,3,1,6,1,1,2,1,0,900
1,66,0,1,4,1,6,1,1,2,1,0,780
1,67,0,1,5,1,6,1,1,2,1,0,747
1,68,0,1,6,1,5,1,1,2,1,0,1341
1,69,0,1,7,1,3,1,1,3,0,0,1234
1,70,0,1,8,1,1,1,1,3,1,0,1120
1,71,0,1,9,1,6,1,1,2,1,0,823
1,72,0,1,10,1,4,1,1,2,1,0,1024
1,73,0,1,11,1,1,1,1,3,1,0,931
1,74,0,1,12,1,1,1,1,3,1,0,1464
1,75,0,1,13,1,5,1,1,2,1,0,1127
1,76,0,1,14,1,6,1,1,2,1,0,2835
1,77,0,1,15,1,5,1,1,2,1,0,900
1,78,0,1,16,1,4,1,1,2,1,0,488
1,79,0,1,17,1,3,1,1,2,1,0,755
1,80,0,1,18,1,6,1,1,2,1,0,888
1,81,0,1,19,1,5,1,1,2,1,0,955
1,82,0,1,20,1,5,1,1,2,1,0,723
1,83,0,1,21,1,5,1,1,2,1,0,698
1,84,0,1,22,1,5,1,1,2,1,0,752
1,85,0,1,23,1,2,1,1,3,1,0,1641
1,86,0,1,0,3,2,2,2,7,1,1,1429
1,87,0,1,1,3,5,2,2,4,1,0,1236
1,88,0,1,2,3,6,5,2,4,1,0,1350
1,89,0,1,3,3,1,3,2,7,1,0,1040
1,90,0,1,4,3,6,6,2,7,0,0,1283
1,91,0,1,5,3,1,3,2,7,1,0,1398
1,92,0,1,6,3,5,3,2,4,1,0,1009
1,93,0,1,7,3,2,4,2,7,1,0,1439
1,94,0,1,8,3,5,5,2,4,1,0,1029
1,95,0,1,9,3,1,4,2,7,1,0,1032
1,96,0,1,10,3,6,5,2,4,1,0,999
1,97,0,1,11,3,6,6,2,4,1,0,977
1,98,0,1,12,3,6,2,2,7,0,0,632
1,99,0,1,0,4,5,6,4,1,0,1,661
1,100,0,1,1,4,4,1,4,1,0,0,1616
1,101,0,1,2,4,3,6,4,1,0,0,1203
1,102,0,1,3,4,2,2,4,5,0,0,818
1,103,0,1,4,4,2,1,4,1,0,0,1874
1,104,0,1,5,4,1,4,4,5,0,0,374
1,105,0,1,6,4,2,6,4,1,1,0,447
1,106,0,1,7,4,2,5,4,1,1,0,767
1,107,0,1,8,4,5,5,4,5,0,0,984
1,108,0,1,9,4,5,5,4,1,0,0,684
1,109,0,1,10,4,3,4,4,5,1,0,327
1,110,0,1,11,4,2,1,4,1,1,0,1290
1,111,0,1,12,4,4,3,4,1,0,0,1230
1,112,0,1,0,1,5,1,1,2,1,1,966
1,113,0,1,1,1,1,1,1,3,1,0,1411
1,114,0,1,2,1,4,1,1,2,1,0,667
1,115,0,1,3,1,5,1,1,2,1,0,887
1,116,0,1,4,1,3,1,1,2,1,0,729
1,117,0,1,5,1,6,1,1,2,1,0,819
1,118,0,1,6,1,5,1,1,2,1,0,682
1,119,0,1,7,1,4,1,1,2,1,0,604
1,120,0,1,8,1,4,1,1,2,1,0,585
1,121,0,1,9,1,3,1,1,2,1,0,602
1,122,0,1,10,1,6,1,1,2,1,0,591
1,123,0,1,11,1,6,1,1,2,1,0,616
1,124,0,1,12,1,1,1,1,3,1,0,1111
1,125,0,1,13,1,1,1,1,3,1,0,1745
1,126,0,1,14,1,3,1,1,2,1,0,1014
1,127,0,1,15,1,3,1,1,2,1,0,928
1,128,0,1,16,1,4,1,1,2,1,0,1731
1,129,0,1,0,2,1,2,3,8,0,1,837
1,130,0,1,1,2,3,1,3,6,1,0,1826
1,131,0,1,2,2,1,2,3,8,0,0,1218
1,132,0,1,3,2,1,3,3,6,1,0,2103
1,133,0,1,4,2,3,4,3,8,0,0,2714
1,134,0,1,5,2,1,6,3,6,0,0,1484
1,135,0,1,6,2,1,1,3,8,0,0,1882
1,136,0,1,7,2,4,4,3,6,1,0,747
1,137,0,1,8,2,5,2,3,6,0,0,970
1,138,0,1,9,2,5,1,3,8,1,0,840
1,139,0,1,10,2,5,6,3,8,1,0,1724
1,140,0,1,11,2,2,6,3,8,1,0,1396
1,141,0,1,12,2,1,3,3,8,0,0,1005
1,142,0,1,13,2,6,5,3,8,1,0,1091
1,143,0,1,14,2,1,5,3,8,1,0,1030
1,144,0,1,15,2,3,5,3,8,1,0,892
1,145,0,1,16,2,3,1,3,6,1,0,976
1,146,0,1,17,2,6,1,3,6,0,0,948
1,147,0,1,18,2,5,1,3,8,1,0,565
1,148,0,1,19,2,1,4,3,8,0,0,1076
1,149,0,1,20,2,6,3,3,6,0,0,412
1,150,0,1,0,1,1,1,1,2,0,1,683
1,151,0,1,1,1,2,1,1,2,0,0,1137
1,152,0,1,2,1,1,1,1,3,1,0,1058
1,153,0,1,3,1,5,1,1,2,1,0,1030
1,154,0,1,4,1,4,1,1,2,1,0,1102
1,155,0,1,5,1,5,1,1,2,1,0,2038
1,156,0,1,6,1,4,1,1,2,1,0,759
1,157,0,1,7,1,2,1,1,2,0,0,653
1,158,0,1,8,1,4,1,1,2,1,0,1025
1,159,0,1,9,1,6,1,1,2,1,0,961
1,160,0,1,10,1,4,1,1,2,1,0,881
1,161,0,1,11,1,6,1,1,2,1,0,739
1,162,0,1,12,1,3,1,1,2,1,0,616
1,163,0,1,13,1,2,1,1,3,1,0,1102
1,164,0,1,14,1,1,1,1,3,1,0,1118
1,165,0,1,15,1,6,1,1,2,1,0,808
1,166,0,1,16,1,5,1,1,2,1,0,790
1,167,0,1,17,1,3,1,1,2,1,0,922
1,168,0,1,18,1,3,1,1,2,1,0,1115
1,169,0,1,19,1,1,1,1,3,1,0,789
1,170,0,1,20,1,2,1,1,3,1,0,1168
1,171,0,1,21,1,3,1,1,3,0,0,1342
1,172,0,1,22,1,6,1,1,2,1,0,583
1,173,0,1,23,1,3,1,1,2,1,0,639
1,174,0,1,24,1,4,1,1,2,1,0,803
1,175,0,1,25,1,5,1,1,2,1,0,599
1,176,0,1,26,1,4,1,1,2,1,0,507
1,177,0,1,27,1,3,1,1,2,1,0,603
1,178,0,1,28,1,5,1,1,2,1,0,474
1,179,0,1,29,1,1,1,1,3,1,0,921
1,180,0,1,30,1,2,1,1,3,1,0,1726
1,181,0,1,31,1,4,1,1,2,1,0,747
1,182,0,1,32,1,1,1,1,3,1,0,970
1,183,0,1,0,3,4,5,2,4,1,1,1981
1,184,0,1,1,3,5,6,2,4,1,0,887
1,185,0,1,2,3,3,2,2,7,1,0,927
1,186,0,1,3,3,3,3,2,7,1,0,1348
1,187,0,1,4,3,1,1,2,7,1,0,1182
1,188,0,1,5,3,2,1,2,7,1,0,988
1,189,0,1,6,3,3,2,2,7,1,0,928
1,190,0,1,7,3,6,5,2,4,1,0,893
1,191,0,1,8,3,3,4,2,4,0,0,996
1,192,0,1,9,3,3,4,2,7,1,0,601
1,193,0,1,10,3,4,4,2,7,0,0,677
1,194,0,1,11,3,1,2,2,7,1,0,1839
1,195,0,1,12,3,5,6,2,4,1,0,919
1,196,0,1,13,3,1,3,2,7,1,0,819
1,197,0,1,14,3,4,5,2,4,1,0,988
1,198,0,1,15,3,3,3,2,4,0,0,1455
1,199,0,1,0,2,2,6,3,6,0,1,948
1,200,0,1,1,2,5,5,3,8,1,0,1404
1,201,0,1,2,2,3,5,3,8,1,0,834
1,202,0,1,3,2,2,6,3,8,1,0,775
1,203,0,1,4,2,4,3,3,6,1,0,1283
1,204,0,1,5,2,1,3,3,6,1,0,1003
1,205,0,1,6,2,2,4,3,6,1,0,888
1,206,0,1,7,2,1,4,3,6,1,0,839
1,207,0,1,8,2,3,6,3,6,0,0,789
1,208,0,1,9,2,3,2,3,6,1,0,1221
1,209,0,1,10,2,6,6,3,8,1,0,1104
1,210,0,1,11,2,1,2,3,6,1,0,1066
1,211,0,1,12,2,6,6,3,8,1,0,723
1,212,0,1,13,2,6,1,3,6,0,0,1518
1,213,0,1,14,2,4,2,3,8,0,0,930
1,214,0,1,15,2,1,5,3,6,0,0,620
1,215,0,1,16,2,3,4,3,8,0,0,481
1,216,0,1,17,2,6,6,3,6,0,0,945
1,217,0,1,18,2,1,2,3,8,0,0,1125
1,218,0,1,19,2,2,2,3,6,1,0,493
1,219,0,1,20,2,2,2,3,6,1,0,681
1,220,0,1,21,2,5,5,3,8,1,0,1077
1,221,0,1,22,2,1,4,3,8,0,0,1605
1,222,0,1,23,2,3,4,3,6,1,0,483
1,223,0,1,24,2,6,3,3,8,1,0,1233
1,224,0,1,25,2,4,2,3,8,0,0,1761
1,225,0,1,26,2,3,1,3,6,1,0,1181
1,226,0,1,27,2,1,4,3,6,1,0,1434
1,227,0,1,28,2,6,5,3,8,1,0,1334
1,228,0,1,29,2,6,5,3,8,1,0,945
1,229,0,1,30,2,2,6,3,6,0,0,1305
1,230,0,1,31,2,2,2,3,8,0,0,849
1,231,0,1,32,2,2,2,3,6,1,0,174
1,232,0,1,33,2,6,5,3,8,1,0,1660
1,233,0,1,34,2,4,5,3,8,1,0,1714
1,234,0,1,35,2,4,2,3,6,1,0,1221
1,235,0,1,36,2,1,6,3,8,1,0,1056
1,236,0,1,37,2,1,2,3,6,1,0,921
1,237,0,1,38,2,6,4,3,8,1,0,1039
1,238,0,1,39,2,3,1,3,6,1,0,961
1,239,0,1,40,2,5,5,3,8,1,0,1181
1,240,0,1,41,2,1,2,3,6,1,0,844
1,241,0,1,42,2,1,3,3,6,1,0,1418
1,242,0,1,43,2,3,5,3,6,0,0,942
1,243,0,1,44,2,6,3,3,8,1,0,734
1,244,0,1,45,2,1,6,3,8,1,0,821
1,245,0,1,46,2,4,6,3,8,1,0,871
1,246,0,1,47,2,2,3,3,6,1,0,887
1,247,0,1,48,2,4,1,3,6,1,0,1552
1,248,0,1,49,2,5,2,3,6,0,0,1328
1,249,0,1,50,2,1,4,3,8,0,0,1475
1,250,0,1,51,2,1,2,3,6,1,0,476
1,251,0,1,52,2,4,3,3,6,1,0,907
1,252,0,1,53,2,4,4,3,8,0,0,1216
1,253,0,1,54,2,2,6,3,8,1,0,1131
1,254,0,1,55,2,2,4,3,6,1,0,1163
1,255,0,1,56,2,3,3,3,8,0,0,1525
1,256,0,1,57,2,2,6,3,8,1,0,908
1,257,0,1,58,2,1,3,3,8,0,0,1604
1,258,0,1,59,2,2,2,3,6,1,0,1304
1,259,0,1,60,2,1,6,3,8,1,0,901
1,260,0,1,61,2,2,6,3,8,1,0,1000
1,261,0,1,62,2,3,5,3,8,1,0,1248
1,262,0,1,63,2,5,1,3,6,0,0,1006
1,263,0,1,64,2,6,1,3,8,1,0,649
1,264,0,1,65,2,2,2,3,6,1,0,1711
1,265,0,1,66,2,3,2,3,6,1,0,881
1,266,0,1,67,2,2,4,3,8,0,0,1422
1,267,0,1,68,2,1,5,3,6,0,0,1324
1,268,0,1,69,2,2,5,3,8,1,0,841
1,269,0,1,70,2,5,5,3,8,1,0,715
1,270,0,1,71,2,6,6,3,8,1,0,987
1,271,0,1,72,2,6,2,3,8,1,0,1125
1,272,0,1,73,2,6,6,3,8,1,0,1189
1,273,0,1,74,2,5,2,3,6,0,0,1246
1,274,0,1,0,4,2,6,4,1,1,1,1090
1,275,0,1,1,4,5,5,4,1,0,0,1205
1,276,0,1,2,4,4,3,4,5,0,0,1011
1,277,0,1,3,4,6,2,4,5,0,0,1283
1,278,0,1,4,4,6,5,4,1,1,0,1317
1,279,0,1,5,4,6,2,4,1,1,0,1058
1,280,0,1,6,4,2,3,4,5,0,0,1186
1,281,0,1,7,4,1,4,4,1,1,0,493
1,282,0,1,8,4,5,5,4,1,0,0,640
1,283,0,1,9,4,6,3,4,1,0,0,1347
1,284,0,1,10,4,3,4,4,5,1,0,1051
1,285,0,1,11,4,1,4,4,5,1,0,805
1,286,0,1,12,4,2,1,4,5,1,0,873
1,287,0,1,13,4,4,3,4,1,0,0,982
1,288,0,1,14,4,6,3,4,5,0,0,420
1,289,0,1,15,4,4,5,4,1,0,0,559
1,290,0,1,16,4,1,5,4,5,1,0,421
1,291,0,1,17,4,6,4,4,1,0,0,1021
1,292,0,1,18,4,3,5,4,5,1,0,463
1,293,0,1,19,4,6,5,4,5,1,0,576
1,294,0,1,20,4,6,6,4,5,1,0,613
1,295,0,1,21,4,2,6,4,1,0,0,1239
1,296,0,1,22,4,5,5,4,5,0,0,249
1,297,0,1,23,4,1,2,4,1,1,0,436
1,298,0,1,24,4,3,5,4,1,0,0,937
1,299,0,1,25,4,4,6,4,5,0,0,323
1,300,0,1,26,4,5,1,4,1,1,0,305
1,301,0,1,27,4,5,6,4,1,0,0,524
1,302,0,1,28,4,6,6,4,5,0,0,373
1,303,0,1,29,4,2,3,4,1,0,0,377
1,304,0,1,30,4,2,1,4,5,0,0,291
1,305,0,1,31,4,4,1,4,1,0,0,632
1,306,0,1,32,4,5,1,4,1,1,0,1276
1,307,0,1,33,4,5,2,4,1,1,0,906
1,308,0,1,34,4,2,2,4,5,0,0,1100
1,309,0,1,35,4,1,1,4,1,1,0,629
1,310,0,1,36,4,5,3,4,5,0,0,1302
1,311,0,1,37,4,3,3,4,1,0,0,330
2,1,0,0,0,3,3,6,4,6,0,1,2062
2,2,0,0,1,3,4,1,4,8,0,0,1449
2,3,0,0,2,3,5,4,4,6,1,0,1386
2,4,0,0,3,3,6,2,4,8,1,0,1485
2,5,0,0,4,3,5,5,4,6,1,0,1347
2,6,0,0,5,3,5,3,4,8,0,0,927
2,7,0,0,6,3,5,2,4,6,1,0,1500
2,8,0,0,7,3,5,5,4,8,0,0,1555
2,9,0,0,8,3,6,5,4,6,0,0,1185
2,10,0,0,9,3,6,4,4,8,1,0,1303
2,11,0,0,10,3,3,5,4,8,0,0,1439
2,12,0,0,11,3,5,6,4,6,1,0,404
2,13,0,0,12,3,4,5,4,6,1,0,1656
2,14,0,0,13,3,4,6,4,6,0,0,1241
2,15,0,0,14,3,2,6,4,6,1,0,1859
2,16,0,0,0,1,4,1,1,7,0,1,1173
2,17,0,0,1,1,2,1,1,4,0,0,893
2,18,0,0,2,1,3,1,1,7,0,0,564
2,19,0,0,3,1,3,1,1,4,1,0,3793
2,20,0,0,4,1,5,1,1,7,0,0,1723
2,21,0,0,5,1,6,1,1,4,1,0,1556
2,22,0,0,6,1,5,1,1,4,1,0,1251
2,23,0,0,7,1,5,1,1,4,1,0,1073
2,24,0,0,8,1,2,1,1,4,0,0,1179
2,25,0,0,9,1,4,1,1,4,1,0,1107
2,26,0,0,10,1,4,1,1,4,1,0,1000
2,27,0,0,11,1,4,1,1,4,1,0,945
2,28,0,0,12,1,4,1,1,4,1,0,1208
2,29,0,0,13,1,2,1,1,7,1,0,989
2,30,0,0,14,1,1,1,1,7,1,0,1321
2,31,0,0,0,2,1,1,2,3,1,1,1245
2,32,0,0,1,2,5,4,2,2,1,0,1250
2,33,0,0,2,2,6,4,2,2,1,0,1101
2,34,0,0,3,2,6,2,2,3,0,0,1137
2,35,0,0,4,2,3,2,2,3,1,0,1075
2,36,0,0,5,2,5,6,2,2,1,0,1856
2,37,0,0,6,2,1,3,2,3,1,0,1224
2,38,0,0,7,2,2,1,2,2,0,0,1347
2,39,0,0,8,2,1,5,2,2,0,0,1389
2,40,0,0,9,2,1,6,2,3,1,0,1496
2,41,0,0,10,2,1,4,2,2,0,0,1277
2,42,0,0,11,2,1,1,2,3,1,0,2371
2,43,0,0,12,2,3,3,2,3,1,0,1178
2,44,0,0,13,2,1,4,2,2,0,0,1365
2,45,0,0,14,2,4,2,2,3,0,0,1048
2,46,0,0,0,4,6,6,3,1,0,1,1236
2,47,0,0,1,4,2,1,3,5,0,0,1180
2,48,0,0,2,4,2,2,3,1,1,0,1351
2,49,0,0,3,4,6,6,3,5,1,0,1079
2,50,0,0,4,4,4,6,3,1,0,0,1324
2,51,0,0,5,4,4,6,3,5,1,0,1771
2,52,0,0,6,4,5,1,3,1,0,0,1278
2,53,0,0,7,4,2,4,3,5,0,0,1199
2,54,0,0,8,4,4,5,3,1,0,0,1048
2,55,0,0,9,4,6,6,3,5,1,0,347
2,56,0,0,10,4,1,2,3,1,1,0,1397
2,57,0,0,11,4,2,1,3,5,0,0,1523
2,58,0,0,12,4,6,1,3,1,0,0,925
2,59,0,0,13,4,4,3,3,5,0,0,658
2,60,0,0,14,4,6,5,3,5,1,0,1188
2,61,0,1,0,2,4,2,2,3,0,1,1761
2,62,0,1,1,2,5,5,2,3,0,0,1111
2,63,0,1,2,2,3,2,2,3,1,0,1311
2,64,0,1,3,2,4,1,2,2,1,0,1598
2,65,0,1,4,2,5,5,2,3,0,0,1051
2,66,0,1,5,2,4,3,2,3,0,0,653
2,67,0,1,6,2,6,1,2,3,0,0,1723
2,68,0,1,7,2,3,4,2,3,1,0,1190
2,69,0,1,8,2,3,4,2,3,1,0,1069
2,70,0,1,9,2,1,6,2,3,1,0,1317
2,71,0,1,10,2,5,6,2,3,0,0,986
2,72,0,1,11,2,6,1,2,2,1,0,1252
2,73,0,1,12,2,3,6,2,3,1,0,1313
2,74,0,1,13,2,4,4,2,3,0,0,1247
2,75,0,1,14,2,1,2,2,2,0,0,1418
2,76,0,1,15,2,4,3,2,3,0,0,1340
2,77,0,1,16,2,2,3,2,3,1,0,1342
2,78,0,1,17,2,5,6,2,3,0,0,1513
2,79,0,1,18,2,6,4,2,3,0,0,1331
2,80,0,1,19,2,6,3,2,3,0,0,1404
2,81,0,1,20,2,6,3,2,2,1,0,1137
2,82,0,1,21,2,6,5,2,3,0,0,1621
2,83,0,1,22,2,4,1,2,2,1,0,1848
2,84,0,1,23,2,4,1,2,2,1,0,857
2,85,0,1,24,2,2,1,2,2,0,0,1710
2,86,0,1,25,2,1,2,2,3,1,0,1251
2,87,0,1,26,2,3,1,2,2,0,0,1110
2,88,0,1,27,2,4,4,2,3,0,0,760
2,89,0,1,28,2,4,1,2,2,1,0,816
2,90,0,1,29,2,4,2,2,3,0,0,1452
2,91,0,1,30,2,5,5,2,2,1,0,999
2,92,0,1,31,2,3,2,2,2,0,0,908
2,93,0,1,32,2,5,5,2,3,0,0,214
2,94,0,1,0,1,6,1,1,4,1,1,2328
2,95,0,1,1,1,6,1,1,4,1,0,1062
2,96,0,1,2,1,1,1,1,7,1,0,826
2,97,0,1,3,1,4,1,1,4,1,0,900
2,98,0,1,4,1,1,1,1,7,1,0,790
2,99,0,1,5,1,3,1,1,4,1,0,1282
2,100,0,1,6,1,2,1,1,7,1,0,985
2,101,0,1,7,1,5,1,1,4,1,0,915
2,102,0,1,8,1,5,1,1,4,1,0,846
2,103,0,1,9,1,6,1,1,4,1,0,781
2,104,0,1,10,1,3,1,1,4,1,0,1320
2,105,0,1,11,1,3,1,1,4,1,0,1040
2,106,0,1,12,1,3,1,1,4,1,0,989
2,107,0,1,13,1,3,1,1,4,1,0,863
2,108,0,1,14,1,6,1,1,4,1,0,975
2,109,0,1,15,1,4,1,1,4,1,0,803
2,110,0,1,16,1,5,1,1,4,1,0,681
2,111,0,1,17,1,1,1,1,7,1,0,875
2,112,0,1,18,1,6,1,1,4,1,0,842
2,113,0,1,19,1,4,1,1,4,1,0,741
2,114,0,1,20,1,5,1,1,4,1,0,699
2,115,0,1,21,1,1,1,1,7,1,0,912
2,116,0,1,22,1,6,1,1,4,1,0,826
2,117,0,1,23,1,5,1,1,4,1,0,810
2,118,0,1,24,1,5,1,1,4,1,0,707
2,119,0,1,25,1,6,1,1,4,1,0,766
2,120,0,1,26,1,4,1,1,4,1,0,717
2,121,0,1,27,1,6,1,1,4,1,0,631
2,122,0,1,28,1,1,1,1,7,1,0,1050
2,123,0,1,29,1,5,1,1,4,1,0,971
2,124,0,1,30,1,1,1,1,7,1,0,1403
2,125,0,1,31,1,4,1,1,4,1,0,756
2,126,0,1,32,1,2,1,1,4,0,0,1361
2,127,0,1,33,1,1,1,1,7,1,0,1582
2,128,0,1,34,1,5,1,1,4,1,0,772
2,129,0,1,35,1,2,1,1,4,0,0,1000
2,130,0,1,36,1,4,1,1,4,1,0,3511
2,131,0,1,37,1,3,1,1,4,1,0,1050
2,132,0,1,38,1,3,1,1,4,1,0,776
2,133,0,1,39,1,4,1,1,4,1,0,804
2,134,0,1,40,1,4,1,1,4,1,0,740
2,135,0,1,41,1,4,1,1,4,1,0,937
2,136,0,1,42,1,4,1,1,4,1,0,715
2,137,0,1,43,1,2,1,1,4,0,0,946
2,138,0,1,44,1,1,1,1,7,1,0,968
2,139,0,1,45,1,5,1,1,4,1,0,947
2,140,0,1,46,1,2,1,1,4,0,0,1203
2,141,0,1,47,1,4,1,1,4,1,0,1297
2,142,0,1,48,1,6,1,1,4,1,0,949
2,143,0,1,49,1,5,1,1,4,1,0,651
2,144,0,1,50,1,5,1,1,4,1,0,648
2,145,0,1,51,1,1,1,1,7,1,0,949
2,146,0,1,52,1,6,1,1,4,1,0,862
2,147,0,1,53,1,3,1,1,4,1,0,872
2,148,0,1,54,1,5,1,1,4,1,0,761
2,149,0,1,55,1,6,1,1,4,1,0,707
2,150,0,1,56,1,3,1,1,4,1,0,870
2,151,0,1,57,1,1,1,1,7,1,0,1199
2,152,0,1,58,1,4,1,1,4,1,0,830
2,153,0,1,59,1,5,1,1,4,1,0,800
2,154,0,1,60,1,6,1,1,4,1,0,792
2,155,0,1,61,1,5,1,1,4,1,0,769
2,156,0,1,62,1,3,1,1,4,1,0,1204
2,157,0,1,63,1,5,1,1,4,1,0,778
2,158,0,1,64,1,5,1,1,4,1,0,776
2,159,0,1,65,1,2,1,1,7,1,0,1245
2,160,0,1,66,1,1,1,1,7,1,0,900
2,161,0,1,67,1,2,1,1,7,1,0,1937
2,162,0,1,68,1,6,1,1,4,1,0,959
2,163,0,1,69,1,6,1,1,4,1,0,971
2,164,0,1,70,1,1,1,1,7,1,0,1278
2,165,0,1,71,1,4,1,1,4,1,0,1044
2,166,0,1,72,1,6,1,1,4,1,0,657
2,167,0,1,73,1,6,1,1,4,1,0,706
2,168,0,1,74,1,2,1,1,4,0,0,1127
2,169,0,1,75,1,4,1,1,4,1,0,808
2,170,0,1,76,1,1,1,1,7,1,0,886
2,171,0,1,77,1,5,1,1,4,1,0,819
2,172,0,1,78,1,6,1,1,4,1,0,825
2,173,0,1,79,1,1,1,1,7,1,0,856
2,174,0,1,80,1,6,1,1,4,1,0,836
2,175,0,1,81,1,3,1,1,4,1,0,1058
2,176,0,1,82,1,5,1,1,4,1,0,802
2,177,0,1,83,1,5,1,1,4,1,0,831
2,178,0,1,84,1,3,1,1,4,1,0,1134
2,179,0,1,85,1,2,1,1,7,1,0,1670
2,180,0,1,86,1,3,1,1,7,0,0,1435
2,181,0,1,87,1,2,1,1,7,1,0,1042
2,182,0,1,88,1,3,1,1,4,1,0,1098
2,183,0,1,89,1,4,1,1,4,1,0,759
2,184,0,1,90,1,4,1,1,4,1,0,758
2,185,0,1,91,1,3,1,1,4,1,0,897
2,186,0,1,92,1,4,1,1,4,1,0,859
2,187,0,1,93,1,3,1,1,4,1,0,618
2,188,0,1,94,1,6,1,1,4,1,0,663
2,189,0,1,95,1,2,1,1,4,0,0,1259
2,190,0,1,96,1,2,1,1,7,1,0,796
2,191,0,1,97,1,2,1,1,7,1,0,807
2,192,0,1,98,1,4,1,1,4,1,0,903
2,193,0,1,99,1,2,1,1,7,1,0,1164
2,194,0,1,100,1,4,1,1,4,1,0,854
2,195,0,1,101,1,5,1,1,4,1,0,972
2,196,0,1,102,1,5,1,1,4,1,0,794
2,197,0,1,103,1,3,1,1,4,1,0,1430
2,198,0,1,104,1,5,1,1,4,1,0,841
2,199,0,1,105,1,5,1,1,4,1,0,875
2,200,0,1,106,1,4,1,1,4,1,0,768
2,201,0,1,107,1,1,1,1,7,1,0,1037
2,202,0,1,108,1,2,1,1,7,1,0,2140
2,203,0,1,109,1,5,1,1,4,1,0,865
2,204,0,1,110,1,2,1,1,4,0,0,1324
2,205,0,1,111,1,5,1,1,4,1,0,902
2,206,0,1,112,1,3,1,1,4,1,0,999
2,207,0,1,113,1,3,1,1,4,1,0,835
2,208,0,1,114,1,6,1,1,4,1,0,998
2,209,0,1,115,1,3,1,1,4,1,0,1046
2,210,0,1,116,1,2,1,1,7,1,0,1870
2,211,0,1,117,1,1,1,1,7,1,0,1150
2,212,0,1,0,3,4,3,4,6,0,1,1634
2,213,0,1,1,3,3,5,4,6,0,0,1228
2,214,0,1,2,3,1,2,4,8,1,0,1370
2,215,0,1,3,3,2,6,4,8,1,0,1236
2,216,0,1,4,3,4,2,4,6,1,0,1334
2,217,0,1,5,3,4,5,4,8,1,0,1156
2,218,0,1,6,3,4,3,4,8,1,0,1586
2,219,0,1,7,3,1,4,4,6,0,0,2277
2,220,0,1,8,3,1,1,4,6,0,0,2549
2,221,0,1,9,3,1,5,4,8,0,0,1438
2,222,0,1,10,3,3,2,4,6,1,0,1767
2,223,0,1,11,3,3,5,4,6,1,0,1083
2,224,0,1,12,3,3,5,4,6,1,0,981
2,225,0,1,13,3,2,3,4,8,1,0,1596
2,226,0,1,14,3,4,6,4,6,1,0,1046
2,227,0,1,15,3,5,2,4,6,1,0,2071
2,228,0,1,16,3,5,4,4,6,1,0,1338
2,229,0,1,17,3,3,6,4,6,0,0,2034
2,230,0,1,18,3,1,6,4,8,0,0,1106
2,231,0,1,19,3,4,4,4,6,1,0,1125
2,232,0,1,20,3,5,2,4,6,0,0,1020
2,233,0,1,21,3,4,4,4,6,1,0,867
2,234,0,1,22,3,1,6,4,8,1,0,957
2,235,0,1,23,3,1,3,4,8,1,0,1007
2,236,0,1,24,3,5,1,4,6,0,0,1047
2,237,0,1,25,3,4,1,4,8,1,0,962
2,238,0,1,26,3,2,3,4,6,0,0,1383
2,239,0,1,27,3,6,6,4,6,0,0,1387
2,240,0,1,28,3,5,4,4,8,0,0,1179
2,241,0,1,29,3,2,1,4,6,0,0,1290
2,242,0,1,30,3,6,6,4,6,1,0,1251
2,243,0,1,31,3,3,3,4,8,0,0,1198
2,244,0,1,32,3,6,4,4,6,1,0,1054
2,245,0,1,33,3,2,4,4,6,1,0,1534
2,246,0,1,34,3,6,4,4,6,0,0,1211
2,247,0,1,35,3,6,3,4,8,1,0,1062
2,248,0,1,36,3,4,6,4,8,1,0,1132
2,249,0,1,37,3,3,6,4,8,1,0,2877
2,250,0,1,38,3,2,2,4,6,1,0,1543
2,251,0,1,39,3,1,2,4,6,1,0,1109
2,252,0,1,40,3,5,5,4,8,0,0,1102
2,253,0,1,41,3,3,2,4,6,0,0,498
2,254,0,1,42,3,5,3,4,6,1,0,1197
2,255,0,1,43,3,5,4,4,6,1,0,852
2,256,0,1,44,3,4,5,4,6,0,0,1120
2,257,0,1,45,3,1,1,4,8,1,0,1247
2,258,0,1,46,3,4,6,4,6,0,0,1674
2,259,0,1,47,3,1,6,4,8,1,0,1159
2,260,0,1,48,3,4,6,4,8,0,0,885
2,261,0,1,49,3,1,1,4,8,0,0,2046
2,262,0,1,50,3,3,1,4,6,1,0,1215
2,263,0,1,51,3,6,6,4,6,0,0,1463
2,264,0,1,52,3,4,1,4,6,1,0,1038
2,265,0,1,53,3,2,4,4,8,0,0,1377
2,266,0,1,54,3,2,5,4,8,0,0,1130
2,267,0,1,55,3,5,1,4,6,0,0,1004
2,268,0,1,56,3,1,2,4,8,1,0,1298
2,269,0,1,57,3,4,4,4,6,1,0,1340
2,270,0,1,58,3,1,6,4,8,0,0,973
2,271,0,1,59,3,4,6,4,6,0,0,1155
2,272,0,1,60,3,3,6,4,8,1,0,1109
2,273,0,1,61,3,6,2,4,6,0,0,1070
2,274,0,1,62,3,1,5,4,6,1,0,2635
2,275,0,1,63,3,3,1,4,8,0,0,1249
2,276,0,1,64,3,1,3,4,6,0,0,1191
2,277,0,1,65,3,3,5,4,8,0,0,680
2,278,0,1,66,3,5,6,4,6,1,0,780
2,279,0,1,67,3,6,3,4,6,1,0,954
2,280,0,1,68,3,6,6,4,6,0,0,809
2,281,0,1,69,3,3,4,4,6,0,0,656
2,282,0,1,70,3,3,4,4,6,0,0,624
2,283,0,1,71,3,5,5,4,6,0,0,1207
2,284,0,1,72,3,3,5,4,6,1,0,1547
2,285,0,1,73,3,2,4,4,8,0,0,1135
2,286,0,1,74,3,4,6,4,6,0,0,1311
2,287,0,1,75,3,6,3,4,8,1,0,635
2,288,0,1,76,3,1,1,4,6,1,0,1202
2,289,0,1,77,3,2,4,4,6,0,0,1156
2,290,0,1,78,3,2,4,4,8,0,0,877
2,291,0,1,79,3,5,5,4,6,1,0,1009
2,292,0,1,80,3,1,1,4,8,0,0,1221
2,293,0,1,81,3,3,6,4,6,1,0,925
2,294,0,1,82,3,5,4,4,8,0,0,995
2,295,0,1,83,3,1,2,4,6,0,0,950
2,296,0,1,84,3,3,4,4,8,0,0,1010
2,297,0,1,85,3,1,4,4,6,0,0,857
2,298,0,1,86,3,5,5,4,6,0,0,356
2,299,0,1,87,3,2,2,4,6,0,0,790
2,300,0,1,88,3,4,4,4,8,0,0,470
2,301,0,1,89,3,4,1,4,6,1,0,757
2,302,0,1,90,3,6,5,4,6,1,0,1086
2,303,0,1,91,3,1,2,4,8,1,0,1047
2,304,0,1,92,3,6,2,4,6,1,0,1160
2,305,0,1,93,3,3,6,4,8,0,0,1167
2,306,0,1,94,3,5,5,4,6,1,0,1046
2,307,0,1,95,3,4,6,4,6,0,0,988
2,308,0,1,96,3,1,5,4,8,1,0,1243
2,309,0,1,97,3,3,6,4,6,0,0,1277
2,310,0,1,98,3,2,5,4,8,0,0,1370
2,311,0,1,99,3,1,3,4,8,1,0,1524
3,1,1,0,0,3,5,4,3,6,0,1,2310
3,2,1,0,1,3,5,4,3,8,1,0,1710
3,3,1,0,2,3,1,5,3,8,1,0,1715
3,4,1,0,3,3,2,6,3,8,1,0,1864
3,5,1,0,4,3,2,5,3,8,1,0,1744
3,6,1,0,5,3,6,4,3,8,1,0,2139
3,7,1,0,6,3,5,4,3,8,1,0,1528
3,8,1,0,7,3,2,6,3,8,1,0,1576
3,9,1,0,8,3,5,4,3,8,1,0,1129
3,10,1,0,9,3,5,6,3,8,1,0,1599
3,11,1,0,10,3,6,1,3,8,1,0,1591
3,12,1,0,11,3,3,2,3,8,0,0,1370
3,13,1,0,12,3,4,1,3,8,0,0,1797
3,14,1,0,13,3,3,5,3,8,1,0,2266
3,15,1,0,14,3,4,6,3,8,1,0,1485
3,16,1,0,0,1,4,4,4,3,0,1,1372
3,17,1,0,1,1,5,6,4,2,1,0,1603
3,18,1,0,2,1,6,2,4,2,0,0,1371
3,19,1,0,3,1,3,2,4,3,1,0,1372
3,20,1,0,4,1,5,2,4,3,0,0,1054
3,21,1,0,5,1,4,1,4,2,0,0,2263
3,22,1,0,6,1,3,2,4,2,1,0,1117
3,23,1,0,7,1,4,1,4,3,0,0,1246
3,24,1,0,8,1,3,2,4,2,0,0,1259
3,25,1,0,9,1,6,6,4,2,1,0,2767
3,26,1,0,10,1,1,1,4,3,1,0,1338
3,27,1,0,11,1,1,1,4,3,1,0,1175
3,28,1,0,12,1,6,2,4,2,0,0,1214
3,29,1,0,13,1,1,3,4,2,1,0,2270
3,30,1,0,14,1,4,1,4,3,0,0,1153
3,31,1,0,0,2,5,1,1,5,1,1,1182
3,32,1,0,1,2,1,1,1,5,0,0,1951
3,33,1,0,2,2,3,1,1,5,1,0,1255
3,34,1,0,3,2,1,1,1,1,1,0,1221
3,35,1,0,4,2,6,1,1,5,1,0,1221
3,36,1,0,5,2,2,1,1,1,1,0,1047
3,37,1,0,6,2,2,1,1,1,1,0,1046
3,38,1,0,7,2,6,1,1,5,1,0,860
3,39,1,0,8,2,6,1,1,5,1,0,901
3,40,1,0,9,2,5,1,1,5,1,0,1100
3,41,1,0,10,2,2,1,1,1,1,0,1191
3,42,1,0,11,2,4,1,1,5,1,0,3044
3,43,1,0,12,2,3,1,1,1,0,0,1090
3,44,1,0,13,2,3,1,1,5,1,0,1989
3,45,1,0,14,2,1,1,1,1,1,0,1054
3,46,1,0,0,4,5,5,2,7,0,1,1876
3,47,1,0,1,4,3,3,2,7,1,0,1380
3,48,1,0,2,4,2,1,2,7,1,0,1994
3,49,1,0,3,4,3,5,2,7,1,0,1293
3,50,1,0,4,4,1,2,2,7,1,0,1259
3,51,1,0,5,4,3,4,2,7,1,0,1117
3,52,1,0,6,4,2,1,2,7,1,0,871
3,53,1,0,7,4,2,2,2,7,1,0,877
3,54,1,0,8,4,5,2,2,4,1,0,958
3,55,1,0,9,4,6,5,2,4,1,0,915
3,56,1,0,10,4,6,6,2,4,1,0,881
3,57,1,0,11,4,5,2,2,4,1,0,902
3,58,1,0,12,4,6,5,2,4,1,0,859
3,59,1,0,13,4,4,2,2,7,0,0,1565
3,60,1,0,14,4,2,6,2,7,1,0,1078
3,61,1,1,0,3,3,1,3,6,1,1,2649
3,62,1,1,1,3,4,6,3,8,1,0,1336
3,63,1,1,2,3,3,4,3,8,0,0,949
3,64,1,1,3,3,5,3,3,8,1,0,2844
3,65,1,1,4,3,1,3,3,6,1,0,2863
3,66,1,1,5,3,4,6,3,8,1,0,1077
3,67,1,1,6,3,6,6,3,8,1,0,1193
3,68,1,1,7,3,4,3,3,8,0,0,1580
3,69,1,1,8,3,4,6,3,8,1,0,2058
3,70,1,1,9,3,6,3,3,8,1,0,1841
3,71,1,1,10,3,3,4,3,6,1,0,1328
3,72,1,1,11,3,3,2,3,6,1,0,1180
3,73,1,1,12,3,6,2,3,8,1,0,1029
3,74,1,1,13,3,2,3,3,6,1,0,1454
3,75,1,1,14,3,3,4,3,6,1,0,1573
3,76,1,1,15,3,5,3,3,8,1,0,1000
3,77,1,1,16,3,6,4,3,8,1,0,1152
3,78,1,1,0,1,6,6,4,3,1,1,3236
3,79,1,1,1,1,5,3,4,3,0,0,1570
3,80,1,1,2,1,1,2,4,3,0,0,1371
3,81,1,1,3,1,3,2,4,2,0,0,1497
3,82,1,1,4,1,4,2,4,3,0,0,2420
3,83,1,1,5,1,6,6,4,3,0,0,11939
3,84,1,1,6,1,2,3,4,2,0,0,1582
3,85,1,1,7,1,2,6,4,3,0,0,1312
3,86,1,1,8,1,4,2,4,3,1,0,2319
3,87,1,1,9,1,6,3,4,3,1,0,1509
3,88,1,1,10,1,1,6,4,2,1,0,1373
3,89,1,1,11,1,4,4,4,3,0,0,1557
3,90,1,1,0,2,1,1,1,1,1,1,2397
3,91,1,1,1,2,4,1,1,5,1,0,898
3,92,1,1,2,2,6,1,1,5,1,0,1004
3,93,1,1,3,2,3,1,1,1,0,0,1201
3,94,1,1,4,2,6,1,1,5,1,0,896
3,95,1,1,5,2,1,1,1,1,1,0,894
3,96,1,1,6,2,5,1,1,5,1,0,974
3,97,1,1,7,2,3,1,1,5,1,0,1797
3,98,1,1,8,2,6,1,1,5,1,0,824
3,99,1,1,9,2,6,1,1,5,1,0,921
3,100,1,1,10,2,3,1,1,5,1,0,1128
3,101,1,1,11,2,2,1,1,1,1,0,1934
3,102,1,1,12,2,6,1,1,5,1,0,1113
3,103,1,1,13,2,5,1,1,5,1,0,1138
3,104,1,1,14,2,3,1,1,5,1,0,1389
3,105,1,1,15,2,3,1,1,5,1,0,991
3,106,1,1,16,2,1,1,1,1,1,0,802
3,107,1,1,17,2,1,1,1,1,1,0,815
3,108,1,1,18,2,2,1,1,5,0,0,1121
3,109,1,1,19,2,6,1,1,5,1,0,4556
3,110,1,1,20,2,3,1,1,5,1,0,1386
3,111,1,1,21,2,3,1,1,5,1,0,811
3,112,1,1,0,3,3,2,3,6,1,1,2731
3,113,1,1,1,3,1,6,3,6,0,0,3172
3,114,1,1,2,3,6,1,3,8,1,0,2435
3,115,1,1,3,3,6,5,3,8,1,0,1021
3,116,1,1,4,3,5,5,3,8,1,0,1046
3,117,1,1,5,3,1,4,3,6,1,0,1010
3,118,1,1,0,4,1,3,2,7,1,1,1449
3,119,1,1,1,4,5,4,2,4,1,0,1845
3,120,1,1,2,4,5,1,2,4,1,0,24467
3,121,1,1,3,4,6,5,2,4,1,0,10046
3,122,1,1,4,4,3,4,2,7,1,0,961
3,123,1,1,5,4,6,1,2,4,1,0,902
3,124,1,1,6,4,3,5,2,7,1,0,957
3,125,1,1,7,4,5,2,2,4,1,0,978
3,126,1,1,8,4,3,1,2,7,1,0,1212
3,127,1,1,9,4,4,4,2,4,1,0,1277
3,128,1,1,10,4,2,1,2,7,1,0,833
3,129,1,1,11,4,1,6,2,7,1,0,911
3,130,1,1,12,4,1,6,2,7,1,0,762
3,131,1,1,0,1,3,2,4,3,1,1,6663
3,132,1,1,1,1,4,4,4,2,0,0,6509
3,133,1,1,2,1,3,1,4,3,1,0,3845
3,134,1,1,3,1,6,5,4,3,1,0,2088
3,135,1,1,4,1,1,1,4,2,0,0,2136
3,136,1,1,5,1,6,1,4,3,0,0,1508
3,137,1,1,6,1,2,3,4,3,1,0,2644
3,138,1,1,7,1,2,3,4,3,0,0,666
3,139,1,1,8,1,5,1,4,3,0,0,1842
3,140,1,1,9,1,6,6,4,3,0,0,5552
3,141,1,1,10,1,1,4,4,3,0,0,2636
3,142,1,1,11,1,2,3,4,3,1,0,1263
3,143,1,1,12,1,6,2,4,2,1,0,2426
3,144,1,1,13,1,4,2,4,2,1,0,1784
3,145,1,1,14,1,3,3,4,3,1,0,1532
3,146,1,1,15,1,2,2,4,3,0,0,1215
3,147,1,1,16,1,5,6,4,2,1,0,3446
3,148,1,1,17,1,2,3,4,2,1,0,1698
3,149,1,1,18,1,2,1,4,3,1,0,1138
3,150,1,1,19,1,6,1,4,2,1,0,1394
3,151,1,1,20,1,5,2,4,2,1,0,1441
3,152,1,1,21,1,6,1,4,2,0,0,936
3,153,1,1,22,1,1,2,4,3,0,0,2117
3,154,1,1,0,2,6,1,1,5,1,1,1217
3,155,1,1,1,2,6,1,1,5,1,0,707
3,156,1,1,2,2,6,1,1,5,1,0,607
3,157,1,1,3,2,2,1,1,1,1,0,987
3,158,1,1,4,2,6,1,1,5,1,0,1377
3,159,1,1,5,2,1,1,1,1,1,0,1140
3,160,1,1,6,2,3,1,1,5,1,0,1583
3,161,1,1,7,2,4,1,1,5,1,0,808
3,162,1,1,8,2,5,1,1,5,1,0,919
3,163,1,1,9,2,1,1,1,1,1,0,810
3,164,1,1,10,2,1,1,1,1,1,0,718
3,165,1,1,11,2,4,1,1,5,1,0,849
3,166,1,1,12,2,2,1,1,5,0,0,872
3,167,1,1,13,2,5,1,1,5,1,0,874
3,168,1,1,14,2,3,1,1,5,1,0,1212
3,169,1,1,15,2,3,1,1,5,1,0,749
3,170,1,1,16,2,1,1,1,1,1,0,900
3,171,1,1,17,2,5,1,1,5,1,0,802
3,172,1,1,18,2,1,1,1,1,1,0,1059
3,173,1,1,19,2,1,1,1,1,1,0,821
3,174,1,1,20,2,6,1,1,5,1,0,1188
3,175,1,1,0,1,1,4,4,3,0,1,10043
3,176,1,1,1,1,2,2,4,3,1,0,2181
3,177,1,1,2,1,3,4,4,3,0,0,1572
3,178,1,1,3,1,6,1,4,2,0,0,2651
3,179,1,1,4,1,1,3,4,2,0,0,3642
3,180,1,1,5,1,2,4,4,3,0,0,1100
3,181,1,1,6,1,6,6,4,3,0,0,6457
3,182,1,1,7,1,6,2,4,3,0,0,4348
3,183,1,1,8,1,4,1,4,3,1,0,1454
3,184,1,1,9,1,5,5,4,3,0,0,36780
3,185,1,1,10,1,4,4,4,2,1,0,1423
3,186,1,1,11,1,2,6,4,2,0,0,992
3,187,1,1,12,1,5,5,4,2,0,0,932
3,188,1,1,13,1,5,2,4,3,1,0,2545
3,189,1,1,14,1,2,6,4,3,1,0,3854
3,190,1,1,15,1,1,5,4,3,0,0,1239
3,191,1,1,0,3,3,3,3,8,0,1,2190
3,192,1,1,1,3,3,4,3,6,1,0,2734
3,193,1,1,2,3,3,2,3,8,0,0,3229
3,194,1,1,3,3,4,2,3,8,0,0,1546
3,195,1,1,4,3,2,1,3,8,0,0,2206
3,196,1,1,5,3,4,6,3,6,0,0,1425
3,197,1,1,6,3,5,2,3,8,1,0,1648
3,198,1,1,7,3,2,4,3,6,1,0,1224
3,199,1,1,8,3,1,5,3,6,0,0,847
3,200,1,1,9,3,6,4,3,8,1,0,1122
3,201,1,1,10,3,5,6,3,8,1,0,2019
3,202,1,1,11,3,4,5,3,8,1,0,1271
3,203,1,1,12,3,4,1,3,8,0,0,1263
3,204,1,1,13,3,3,1,3,6,1,0,4386
3,205,1,1,0,4,6,2,2,4,1,1,1480
3,206,1,1,1,4,6,1,2,4,1,0,819
3,207,1,1,2,4,4,3,2,4,1,0,1816
3,208,1,1,3,4,3,6,2,7,1,0,1585
3,209,1,1,4,4,1,2,2,7,1,0,2290
3,210,1,1,5,4,3,6,2,7,1,0,1100
3,211,1,1,0,2,1,1,1,1,1,1,1140
3,212,1,1,1,2,6,1,1,5,1,0,823
3,213,1,1,0,1,2,3,4,3,1,1,9253
3,214,1,1,1,1,3,5,4,3,1,0,1619
3,215,1,1,2,1,6,3,4,3,1,0,1348
3,216,1,1,3,1,4,6,4,3,1,0,1254
3,217,1,1,4,1,5,4,4,3,1,0,1087
3,218,1,1,5,1,4,3,4,3,0,0,1128
3,219,1,1,6,1,1,6,4,3,1,0,4798
3,220,1,1,7,1,2,4,4,3,0,0,955
3,221,1,1,8,1,6,3,4,3,1,0,3359
3,222,1,1,9,1,5,5,4,3,0,0,854
3,223,1,1,10,1,5,5,4,3,0,0,2234
3,224,1,1,11,1,4,3,4,3,1,0,1990
3,225,1,1,12,1,6,3,4,3,0,0,1621
3,226,1,1,13,1,6,2,4,3,0,0,854
3,227,1,1,14,1,6,3,4,3,1,0,1064
3,228,1,1,15,1,3,6,4,3,0,0,4411
3,229,1,1,16,1,5,4,4,3,1,0,5816
3,230,1,1,17,1,6,1,4,3,1,0,2916
3,231,1,1,18,1,1,4,4,3,0,0,1292
3,232,1,1,19,1,2,5,4,3,0,0,2836
3,233,1,1,20,1,3,4,4,3,0,0,1922
3,234,1,1,21,1,1,4,4,3,0,0,2688
3,235,1,1,22,1,4,2,4,3,0,0,1593
3,236,1,1,23,1,2,3,4,3,1,0,7310
3,237,1,1,24,1,4,4,4,3,1,0,2416
3,238,1,1,25,1,2,2,4,3,1,0,1222
3,239,1,1,26,1,3,1,4,3,0,0,1167
3,240,1,1,27,1,2,1,4,3,0,0,1043
3,241,1,1,28,1,1,2,4,3,1,0,1016
3,242,1,1,29,1,5,2,4,3,1,0,1004
3,243,1,1,30,1,6,2,4,3,0,0,965
3,244,1,1,31,1,2,5,4,3,0,0,736
3,245,1,1,32,1,5,3,4,3,1,0,7359
3,246,1,1,33,1,1,3,4,3,0,0,2616
3,247,1,1,34,1,6,3,4,3,0,0,4597
3,248,1,1,35,1,3,4,4,3,1,0,1479
3,249,1,1,36,1,6,2,4,2,0,0,1306
3,250,1,1,37,1,2,6,4,2,0,0,1561
3,251,1,1,38,1,6,3,4,3,1,0,1146
3,252,1,1,39,1,3,2,4,3,1,0,980
3,253,1,1,40,1,3,1,4,3,1,0,1044
3,254,1,1,41,1,3,3,4,3,0,0,1757
3,255,1,1,42,1,5,5,4,3,1,0,1835
3,256,1,1,43,1,4,4,4,3,0,0,1421
3,257,1,1,44,1,1,4,4,3,1,0,1439
3,258,1,1,0,3,3,4,3,8,0,1,2133
3,259,1,1,1,3,5,6,3,8,1,0,2641
3,260,1,1,2,3,2,5,3,6,0,0,1534
3,261,1,1,3,3,4,1,3,6,1,0,2602
3,262,1,1,4,3,5,5,3,8,1,0,1759
3,263,1,1,5,3,6,6,3,8,1,0,1194
3,264,1,1,6,3,6,1,3,6,0,0,2077
3,265,1,1,7,3,6,2,3,8,1,0,1139
3,266,1,1,8,3,4,5,3,8,1,0,2045
3,267,1,1,9,3,2,5,3,6,0,0,1179
3,268,1,1,10,3,2,5,3,8,1,0,1263
3,269,1,1,11,3,1,4,3,6,1,0,1219
3,270,1,1,12,3,4,1,3,8,0,0,1077
3,271,1,1,13,3,3,5,3,8,1,0,1649
3,272,1,1,14,3,5,3,3,8,1,0,1612
3,273,1,1,15,3,1,3,3,6,1,0,1154
3,274,1,1,16,3,3,6,3,6,0,0,2943
3,275,1,1,17,3,5,5,3,8,1,0,980
3,276,1,1,18,3,2,2,3,6,1,0,1448
3,277,1,1,19,3,1,2,3,6,1,0,1129
3,278,1,1,20,3,1,1,3,6,1,0,1145
3,279,1,1,21,3,3,2,3,6,1,0,1702
3,280,1,1,22,3,4,1,3,8,0,0,1327
3,281,1,1,23,3,5,6,3,8,1,0,1852
3,282,1,1,24,3,5,3,3,8,1,0,1035
3,283,1,1,25,3,2,5,3,6,0,0,2400
3,284,1,1,26,3,1,6,3,8,1,0,1200
3,285,1,1,27,3,3,5,3,8,1,0,1838
3,286,1,1,28,3,2,4,3,8,0,0,1569
3,287,1,1,29,3,1,3,3,6,1,0,1536
3,288,1,1,30,3,2,1,3,6,1,0,1448
3,289,1,1,31,3,6,3,3,8,1,0,1091
3,290,1,1,32,3,2,6,3,6,0,0,3101
3,291,1,1,33,3,3,5,3,8,1,0,1188
3,292,1,1,34,3,6,1,3,8,1,0,1067
3,293,1,1,35,3,6,6,3,8,1,0,1298
3,294,1,1,36,3,1,6,3,8,1,0,1339
3,295,1,1,37,3,6,4,3,8,1,0,1515
3,296,1,1,38,3,4,1,3,6,1,0,1754
3,297,1,1,39,3,4,6,3,8,1,0,1237
3,298,1,1,40,3,6,5,3,8,1,0,1217
3,299,1,1,41,3,6,5,3,8,1,0,993
3,300,1,1,42,3,2,3,3,6,1,0,1676
3,301,1,1,43,3,3,6,3,8,1,0,1430
3,302,1,1,44,3,5,5,3,8,1,0,1117
3,303,1,1,45,3,5,5,3,8,1,0,1207
3,304,1,1,46,3,1,2,3,6,1,0,38502
3,305,1,1,0,1,3,5,4,2,0,1,5511
3,306,1,1,1,1,6,4,4,2,0,0,1376
3,307,1,1,2,1,1,1,4,2,1,0,1130
3,308,1,1,3,1,2,4,4,3,0,0,1232
3,309,1,1,4,1,4,3,4,3,1,0,1585
3,310,1,1,5,1,1,2,4,2,1,0,1163
3,311,1,1,6,1,3,1,4,2,1,0,1005
3,312,1,1,7,1,3,6,4,3,0,0,1082
3,313,1,1,8,1,1,1,4,2,0,0,958
3,314,1,1,9,1,5,5,4,2,0,0,2602
3,315,1,1,10,1,1,1,4,2,1,0,982
3,316,1,1,11,1,1,3,4,2,0,0,1555
3,317,1,1,12,1,2,5,4,3,0,0,1268
3,318,1,1,13,1,4,1,4,3,1,0,1103
3,319,1,1,14,1,5,4,4,3,1,0,1372
3,320,1,1,15,1,3,3,4,3,0,0,1027
3,321,1,1,16,1,1,1,4,2,0,0,1305
3,322,1,1,17,1,3,3,4,3,1,0,838
3,323,1,1,18,1,1,3,4,3,0,0,1045
3,324,1,1,19,1,2,1,4,3,1,0,396
3,325,1,1,20,1,1,1,4,3,0,0,538
3,326,1,1,21,1,2,2,4,3,1,0,348
3,327,1,1,22,1,3,4,4,3,1,0,660
3,328,1,1,23,1,2,6,4,3,0,0,804
3,329,1,1,24,1,3,3,4,3,1,0,228
3,330,1,1,25,1,6,6,4,3,0,0,358
3,331,1,1,26,1,6,5,4,3,1,0,255
3,332,1,1,27,1,1,6,4,3,0,0,289
3,333,1,1,28,1,5,4,4,3,0,0,178
3,334,1,1,29,1,1,1,4,3,0,0,408
3,335,1,1,30,1,3,4,4,3,1,0,1093
4,1,0,0,0,4,4,1,1,1,0,1,1993
4,2,0,0,1,4,2,1,1,5,0,0,1303
4,3,0,0,2,4,5,1,1,1,0,0,2563
4,4,0,0,3,4,4,1,1,1,0,0,1864
4,5,0,0,4,4,2,1,1,1,1,0,1163
4,6,0,0,5,4,6,1,1,1,0,0,3038
4,7,0,0,6,4,5,1,1,5,1,0,1473
4,8,0,0,7,4,4,1,1,5,1,0,1126
4,9,0,0,8,4,2,1,1,1,1,0,980
4,10,0,0,9,4,3,1,1,5,1,0,2039
4,11,0,0,10,4,4,1,1,5,1,0,726
4,12,0,0,11,4,2,1,1,1,1,0,926
4,13,0,0,12,4,4,1,1,5,1,0,965
4,14,0,0,13,4,4,1,1,5,1,0,749
4,15,0,0,14,4,1,1,1,1,1,0,2341
4,16,0,0,0,1,5,6,4,3,1,1,1377
4,17,0,0,1,1,2,4,4,3,0,0,1286
4,18,0,0,2,1,2,3,4,2,0,0,1291
4,19,0,0,3,1,4,4,4,3,1,0,2522
4,20,0,0,4,1,1,1,4,3,0,0,1157
4,21,0,0,5,1,4,3,4,3,1,0,2417
4,22,0,0,6,1,6,2,4,2,0,0,10398
4,23,0,0,7,1,2,1,4,2,1,0,1457
4,24,0,0,8,1,4,3,4,3,0,0,1285
4,25,0,0,9,1,6,1,4,3,0,0,3368
4,26,0,0,10,1,2,5,4,3,1,0,2321
4,27,0,0,11,1,3,3,4,3,0,0,1039
4,28,0,0,12,1,6,3,4,3,1,0,4162
4,29,0,0,13,1,6,1,4,2,1,0,1719
4,30,0,0,14,1,5,4,4,3,1,0,1541
4,31,0,0,0,3,5,5,3,7,0,1,2352
4,32,0,0,1,3,5,4,3,7,0,0,1250
4,33,0,0,2,3,4,2,3,7,1,0,2793
4,34,0,0,3,3,6,1,3,7,0,0,40056
4,35,0,0,4,3,6,2,3,7,0,0,3379
4,36,0,0,5,3,6,4,3,7,0,0,1209
4,37,0,0,6,3,3,3,3,7,1,0,1016
4,38,0,0,7,3,6,6,3,4,1,0,1148
4,39,0,0,8,3,5,5,3,4,1,0,1262
4,40,0,0,9,3,6,2,3,4,1,0,1165
4,41,0,0,10,3,6,6,3,4,1,0,1077
4,42,0,0,11,3,2,5,3,4,1,0,1614
4,43,0,0,12,3,6,1,3,4,1,0,974
4,44,0,0,13,3,1,2,3,4,0,0,1333
4,45,0,0,14,3,3,4,3,7,1,0,2098
4,46,0,0,0,2,1,4,2,8,0,1,970
4,47,0,0,1,2,2,1,2,8,0,0,930
4,48,0,0,2,2,3,3,2,8,0,0,970
4,49,0,0,3,2,3,3,2,6,1,0,1113
4,50,0,0,4,2,3,3,2,6,1,0,1310
4,51,0,0,5,2,1,1,2,6,1,0,1181
4,52,0,0,6,2,5,5,2,8,1,0,1188
4,53,0,0,7,2,5,2,2,6,0,0,2300
4,54,0,0,8,2,5,4,2,6,0,0,1458
4,55,0,0,9,2,6,4,2,6,0,0,914
4,56,0,0,10,2,2,6,2,6,1,0,1082
4,57,0,0,11,2,3,6,2,6,1,0,973
4,58,0,0,12,2,4,2,2,8,1,0,1462
4,59,0,0,13,2,5,3,2,8,1,0,1166
4,60,0,0,14,2,3,3,2,8,0,0,917
4,61,0,1,0,4,2,1,1,5,0,1,2988
4,62,0,1,1,4,1,1,1,5,0,0,1658
4,63,0,1,2,4,3,1,1,5,1,0,2027
4,64,0,1,3,4,1,1,1,1,1,0,1567
4,65,0,1,4,4,5,1,1,5,1,0,1389
4,66,0,1,5,4,6,1,1,5,1,0,1054
4,67,0,1,6,4,5,1,1,5,1,0,896
4,68,0,1,7,4,1,1,1,1,1,0,1973
4,69,0,1,8,4,4,1,1,5,1,0,1259
4,70,0,1,9,4,6,1,1,5,1,0,781
4,71,0,1,10,4,6,1,1,5,1,0,846
4,72,0,1,11,4,2,1,1,1,1,0,1077
4,73,0,1,12,4,1,1,1,1,1,0,815
4,74,0,1,13,4,1,1,1,1,1,0,613
4,75,0,1,14,4,4,1,1,5,1,0,935
4,76,0,1,15,4,4,1,1,5,1,0,815
4,77,0,1,16,4,5,1,1,5,1,0,702
4,78,0,1,17,4,4,1,1,5,1,0,397
4,79,0,1,18,4,4,1,1,5,1,0,581
4,80,0,1,19,4,4,1,1,5,1,0,559
4,81,0,1,20,4,2,1,1,1,1,0,1437
4,82,0,1,21,4,1,1,1,1,1,0,829
4,83,0,1,0,1,4,3,4,3,0,1,1580
4,84,0,1,1,1,3,5,4,3,1,0,962
4,85,0,1,2,1,3,2,4,3,1,0,1270
4,86,0,1,3,1,1,3,4,3,1,0,1197
4,87,0,1,4,1,2,2,4,3,1,0,989
4,88,0,1,5,1,1,1,4,3,1,0,1038
4,89,0,1,6,1,4,6,4,3,1,0,1198
4,90,0,1,7,1,1,4,4,3,1,0,1413
4,91,0,1,8,1,1,1,4,3,0,0,861
4,92,0,1,9,1,1,3,4,3,1,0,816
4,93,0,1,10,1,5,4,4,2,0,0,1271
4,94,0,1,11,1,2,1,4,2,0,0,1513
4,95,0,1,12,1,3,6,4,3,1,0,1178
4,96,0,1,13,1,3,1,4,2,1,0,1332
4,97,0,1,14,1,4,2,4,3,0,0,1342
4,98,0,1,15,1,4,1,4,3,1,0,1289
4,99,0,1,16,1,1,5,4,3,1,0,1079
4,100,0,1,17,1,3,1,4,3,1,0,1661
4,101,0,1,18,1,3,6,4,3,0,0,1052
4,102,0,1,19,1,5,1,4,2,0,0,1506
4,103,0,1,20,1,1,2,4,3,0,0,905
4,104,0,1,21,1,3,3,4,3,1,0,971
4,105,0,1,22,1,5,6,4,3,1,0,581
4,106,0,1,23,1,4,2,4,3,0,0,2838
4,107,0,1,24,1,1,4,4,2,0,0,538
4,108,0,1,25,1,5,5,4,3,1,0,1907
4,109,0,1,26,1,3,5,4,3,1,0,1215
4,110,0,1,27,1,3,2,4,3,1,0,1790
4,111,0,1,28,1,3,6,4,2,0,0,1639
4,112,0,1,29,1,5,4,4,2,1,0,3399
4,113,0,1,30,1,3,1,4,3,0,0,798
4,114,0,1,31,1,3,5,4,3,1,0,770
4,115,0,1,32,1,2,2,4,2,1,0,2454
4,116,0,1,33,1,4,6,4,3,0,0,1294
4,117,0,1,34,1,3,2,4,2,0,0,1306
4,118,0,1,35,1,2,3,4,3,0,0,906
4,119,0,1,0,3,6,1,3,7,0,1,1436
4,120,0,1,1,3,3,2,3,4,0,0,377
4,121,0,1,2,3,3,6,3,4,1,0,1137
4,122,0,1,3,3,2,2,3,4,0,0,1206
4,123,0,1,4,3,3,3,3,4,0,0,562
4,124,0,1,5,3,5,4,3,4,1,0,969
4,125,0,1,6,3,4,5,3,4,1,0,887
4,126,0,1,7,3,5,3,3,7,0,0,1950
4,127,0,1,8,3,2,2,3,4,0,0,721
4,128,0,1,9,3,4,2,3,4,0,0,1324
4,129,0,1,10,3,6,5,3,4,1,0,1073
4,130,0,1,11,3,3,4,3,4,0,0,3510
4,131,0,1,12,3,1,3,3,7,1,0,1208
4,132,0,1,13,3,5,6,3,4,1,0,1284
4,133,0,1,14,3,1,3,3,7,1,0,780
4,134,0,1,15,3,5,4,3,4,1,0,1228
4,135,0,1,16,3,3,3,3,7,1,0,1174
4,136,0,1,17,3,1,3,3,4,0,0,2165
4,137,0,1,18,3,3,6,3,4,1,0,1082
4,138,0,1,19,3,1,3,3,7,1,0,621
4,139,0,1,20,3,2,3,3,7,1,0,1405
4,140,0,1,21,3,5,5,3,4,1,0,1691
4,141,0,1,22,3,6,6,3,4,1,0,1111
4,142,0,1,23,3,6,1,3,7,0,0,1358
4,143,0,1,24,3,6,6,3,4,1,0,1120
4,144,0,1,25,3,3,5,3,4,1,0,1214
4,145,0,1,26,3,3,6,3,4,1,0,1142
4,146,0,1,27,3,1,6,3,4,1,0,1349
4,147,0,1,28,3,5,2,3,4,1,0,2774
4,148,0,1,29,3,6,4,3,7,0,0,1551
4,149,0,1,30,3,2,5,3,4,1,0,1498
4,150,0,1,31,3,1,5,3,4,1,0,1109
4,151,0,1,32,3,5,4,3,4,1,0,1381
4,152,0,1,33,3,4,2,3,4,0,0,1334
4,153,0,1,34,3,3,5,3,4,1,0,781
4,154,0,1,35,3,4,5,3,4,1,0,882
4,155,0,1,36,3,3,4,3,4,0,0,925
4,156,0,1,0,4,2,1,1,1,1,1,1779
4,157,0,1,1,4,4,1,1,5,1,0,1254
4,158,0,1,2,4,4,1,1,5,1,0,549
4,159,0,1,3,4,3,1,1,5,1,0,1253
4,160,0,1,4,4,5,1,1,5,1,0,1023
4,161,0,1,5,4,4,1,1,5,1,0,725
4,162,0,1,6,4,4,1,1,5,1,0,573
4,163,0,1,7,4,5,1,1,5,1,0,597
4,164,0,1,8,4,6,1,1,5,1,0,1311
4,165,0,1,9,4,5,1,1,5,1,0,917
4,166,0,1,10,4,2,1,1,1,1,0,980
4,167,0,1,11,4,6,1,1,5,1,0,910
4,168,0,1,12,4,4,1,1,5,1,0,501
4,169,0,1,13,4,5,1,1,5,1,0,512
4,170,0,1,14,4,2,1,1,1,1,0,1029
4,171,0,1,15,4,4,1,1,5,1,0,820
4,172,0,1,16,4,5,1,1,5,1,0,294
4,173,0,1,17,4,3,1,1,5,1,0,653
4,174,0,1,18,4,3,1,1,5,1,0,549
4,175,0,1,19,4,3,1,1,5,1,0,543
4,176,0,1,20,4,2,1,1,1,1,0,5078
4,177,0,1,21,4,4,1,1,5,1,0,1214
4,178,0,1,22,4,5,1,1,5,1,0,740
4,179,0,1,23,4,5,1,1,5,1,0,405
4,180,0,1,24,4,3,1,1,5,1,0,454
4,181,0,1,25,4,2,1,1,1,1,0,1125
4,182,0,1,26,4,4,1,1,5,1,0,933
4,183,0,1,27,4,5,1,1,5,1,0,982
4,184,0,1,28,4,2,1,1,1,1,0,1220
4,185,0,1,29,4,5,1,1,5,1,0,876
4,186,0,1,30,4,1,1,1,1,1,0,1205
4,187,0,1,31,4,3,1,1,5,1,0,540
4,188,0,1,32,4,5,1,1,5,1,0,190
4,189,0,1,33,4,3,1,1,5,1,0,461
4,190,0,1,34,4,6,1,1,5,1,0,734
4,191,0,1,35,4,6,1,1,5,1,0,493
4,192,0,1,36,4,4,1,1,5,1,0,766
4,193,0,1,37,4,2,1,1,5,0,0,477
4,194,0,1,38,4,5,1,1,5,1,0,569
4,195,0,1,39,4,4,1,1,5,1,0,549
4,196,0,1,40,4,5,1,1,5,1,0,653
4,197,0,1,41,4,2,1,1,1,1,0,919
4,198,0,1,42,4,6,1,1,5,1,0,645
4,199,0,1,43,4,5,1,1,5,1,0,581
4,200,0,1,44,4,1,1,1,1,1,0,996
4,201,0,1,45,4,4,1,1,5,1,0,589
4,202,0,1,46,4,1,1,1,1,1,0,991
4,203,0,1,47,4,1,1,1,1,1,0,1197
4,204,0,1,48,4,4,1,1,5,1,0,787
4,205,0,1,49,4,5,1,1,5,1,0,701
4,206,0,1,50,4,4,1,1,5,1,0,540
4,207,0,1,51,4,6,1,1,5,1,0,254
4,208,0,1,52,4,6,1,1,5,1,0,518
4,209,0,1,53,4,4,1,1,5,1,0,575
4,210,0,1,54,4,1,1,1,1,1,0,1206
4,211,0,1,55,4,6,1,1,5,1,0,821
4,212,0,1,56,4,6,1,1,5,1,0,566
4,213,0,1,57,4,1,1,1,1,1,0,1046
4,214,0,1,0,3,1,3,3,4,0,1,1748
4,215,0,1,1,3,1,1,3,7,1,0,2505
4,216,0,1,2,3,3,5,3,4,1,0,1223
4,217,0,1,3,3,5,5,3,4,1,0,845
4,218,0,1,4,3,4,4,3,4,0,0,1086
4,219,0,1,5,3,2,5,3,4,1,0,1297
4,220,0,1,6,3,2,2,3,7,1,0,1780
4,221,0,1,7,3,4,1,3,7,1,0,1125
4,222,0,1,8,3,2,2,3,7,1,0,1188
4,223,0,1,9,3,1,1,3,7,1,0,1110
4,224,0,1,10,3,5,3,3,4,1,0,1708
4,225,0,1,11,3,5,3,3,4,1,0,870
4,226,0,1,12,3,6,6,3,4,1,0,1756
4,227,0,1,13,3,2,5,3,4,1,0,1653
4,228,0,1,14,3,3,4,3,4,0,0,1748
4,229,0,1,15,3,2,5,3,4,1,0,800
4,230,0,1,16,3,4,4,3,7,1,0,2086
4,231,0,1,17,3,5,3,3,7,0,0,1267
4,232,0,1,18,3,4,3,3,4,0,0,2176
4,233,0,1,19,3,1,4,3,4,0,0,1041
4,234,0,1,20,3,5,2,3,7,0,0,1337
4,235,0,1,21,3,3,4,3,4,0,0,1440
4,236,0,1,22,3,5,6,3,4,1,0,1847
4,237,0,1,23,3,6,6,3,4,1,0,862
4,238,0,1,24,3,6,4,3,4,1,0,1517
4,239,0,1,25,3,1,5,3,7,0,0,1607
4,240,0,1,26,3,5,2,3,7,0,0,3194
4,241,0,1,27,3,3,4,3,4,0,0,959
4,242,0,1,28,3,6,5,3,4,1,0,1177
4,243,0,1,29,3,3,3,3,7,1,0,1550
4,244,0,1,30,3,1,2,3,7,1,0,1029
4,245,0,1,31,3,6,2,3,7,0,0,1037
4,246,0,1,32,3,4,6,3,4,1,0,1274
4,247,0,1,33,3,3,2,3,7,1,0,1414
4,248,0,1,34,3,3,3,3,4,0,0,812
4,249,0,1,35,3,1,6,3,4,1,0,1155
4,250,0,1,36,3,1,4,3,4,0,0,1244
4,251,0,1,37,3,2,1,3,7,1,0,1240
4,252,0,1,38,3,3,2,3,7,1,0,637
4,253,0,1,39,3,1,4,3,7,1,0,1181
4,254,0,1,40,3,6,1,3,7,0,0,1052
4,255,0,1,41,3,2,2,3,7,1,0,1337
4,256,0,1,42,3,5,3,3,4,1,0,2428
4,257,0,1,0,2,5,4,2,8,1,1,909
4,258,0,1,1,2,3,1,2,8,0,0,326
4,259,0,1,2,2,5,2,2,8,1,0,624
4,260,0,1,3,2,2,2,2,8,0,0,797
4,261,0,1,0,1,1,4,4,3,0,1,781
4,262,0,1,1,1,1,2,4,3,1,0,809
4,263,0,1,2,1,4,2,4,3,0,0,1084
4,264,0,1,3,1,3,3,4,3,0,0,495
4,265,0,1,0,4,5,1,1,5,1,1,933
4,266,0,1,1,4,1,1,1,1,1,0,1078
4,267,0,1,2,4,4,1,1,5,1,0,845
4,268,0,1,3,4,2,1,1,1,1,0,1347
4,269,0,1,4,4,2,1,1,1,1,0,902
4,270,0,1,5,4,1,1,1,1,1,0,813
4,271,0,1,6,4,3,1,1,5,1,0,782
4,272,0,1,7,4,1,1,1,1,1,0,1054
4,273,0,1,8,4,6,1,1,5,1,0,814
4,274,0,1,9,4,1,1,1,1,1,0,1076
4,275,0,1,10,4,4,1,1,5,1,0,598
4,276,0,1,11,4,6,1,1,5,1,0,382
4,277,0,1,12,4,6,1,1,5,1,0,484
4,278,0,1,13,4,5,1,1,5,1,0,950
4,279,0,1,14,4,5,1,1,5,1,0,662
4,280,0,1,15,4,6,1,1,5,1,0,621
4,281,0,1,16,4,1,1,1,1,1,0,1117
4,282,0,1,17,4,3,1,1,5,1,0,740
4,283,0,1,18,4,6,1,1,5,1,0,589
4,284,0,1,19,4,1,1,1,1,1,0,1094
4,285,0,1,20,4,3,1,1,5,1,0,637
4,286,0,1,21,4,4,1,1,5,1,0,747
4,287,0,1,22,4,5,1,1,5,1,0,589
4,288,0,1,23,4,4,1,1,5,1,0,569
4,289,0,1,24,4,6,1,1,5,1,0,556
4,290,0,1,25,4,3,1,1,5,1,0,1558
4,291,0,1,26,4,2,1,1,1,1,0,2358
4,292,0,1,27,4,1,1,1,1,1,0,574
4,293,0,1,28,4,6,1,1,5,1,0,829
4,294,0,1,29,4,4,1,1,5,1,0,541
4,295,0,1,30,4,3,1,1,5,1,0,709
4,296,0,1,31,4,2,1,1,1,1,0,885
4,297,0,1,32,4,5,1,1,5,1,0,708
4,298,0,1,33,4,1,1,1,1,1,0,1053
4,299,0,1,34,4,4,1,1,5,1,0,765
4,300,0,1,35,4,4,1,1,5,1,0,708
4,301,0,1,36,4,6,1,1,5,1,0,965
4,302,0,1,37,4,1,1,1,1,1,0,1308
4,303,0,1,38,4,3,1,1,5,1,0,749
4,304,0,1,39,4,1,1,1,1,1,0,861
4,305,0,1,40,4,2,1,1,1,1,0,1141
4,306,0,1,41,4,4,1,1,5,1,0,597
4,307,0,1,42,4,6,1,1,5,1,0,878
4,308,0,1,43,4,5,1,1,5,1,0,2069
4,309,0,1,44,4,5,1,1,5,1,0,997
4,310,0,1,45,4,4,1,1,5,1,0,838
4,311,0,1,46,4,5,1,1,5,1,0,734
5,1,0,0,0,3,4,4,3,8,0,1,2988
5,2,0,0,1,3,2,4,3,6,1,0,1478
5,3,0,0,2,3,3,1,3,6,1,0,3078
5,4,0,0,3,3,2,2,3,6,1,0,1360
5,5,0,0,4,3,3,5,3,6,0,0,2129
5,6,0,0,5,3,6,6,3,8,1,0,921
5,7,0,0,6,3,3,6,3,8,1,0,1423
5,8,0,0,7,3,3,5,3,8,1,0,1218
5,9,0,0,8,3,1,3,3,6,1,0,1387
5,10,0,0,9,3,5,4,3,8,1,0,1293
5,11,0,0,10,3,2,5,3,6,0,0,1425
5,12,0,0,11,3,1,5,3,8,1,0,954
5,13,0,0,12,3,5,4,3,6,0,0,2691
5,14,0,0,13,3,3,6,3,6,0,0,1525
5,15,0,0,14,3,2,5,3,8,1,0,2317
5,16,0,0,0,1,4,3,2,2,1,1,1161
5,17,0,0,1,1,4,1,2,3,0,0,1226
5,18,0,0,2,1,4,1,2,2,1,0,867
5,19,0,0,3,1,1,2,2,2,0,0,1532
5,20,0,0,4,1,5,1,2,2,1,0,1211
5,21,0,0,5,1,3,5,2,2,0,0,1279
5,22,0,0,6,1,4,5,2,3,0,0,1102
5,23,0,0,7,1,3,3,2,2,0,0,1172
5,24,0,0,8,1,5,1,2,2,1,0,1044
5,25,0,0,9,1,1,2,2,2,0,0,1706
5,26,0,0,10,1,3,3,2,2,0,0,904
5,27,0,0,11,1,6,3,2,2,1,0,1423
5,28,0,0,12,1,3,1,2,3,1,0,1063
5,29,0,0,13,1,3,3,2,3,1,0,1315
5,30,0,0,14,1,2,6,2,3,1,0,1193
5,31,0,0,0,2,3,1,1,5,1,1,1189
5,32,0,0,1,2,6,1,1,5,1,0,1011
5,33,0,0,2,2,5,1,1,1,0,0,1449
5,34,0,0,3,2,5,1,1,5,1,0,1323
5,35,0,0,4,2,1,1,1,5,0,0,1082
5,36,0,0,5,2,5,1,1,5,1,0,1144
5,37,0,0,6,2,2,1,1,1,1,0,1048
5,38,0,0,7,2,5,1,1,5,1,0,1090
5,39,0,0,8,2,3,1,1,1,0,0,1389
5,40,0,0,9,2,1,1,1,1,1,0,1172
5,41,0,0,10,2,3,1,1,5,1,0,942
5,42,0,0,11,2,2,1,1,5,0,0,1126
5,43,0,0,12,2,4,1,1,5,1,0,1389
5,44,0,0,13,2,4,1,1,5,1,0,926
5,45,0,0,14,2,1,1,1,1,1,0,1000
5,46,0,0,0,4,1,4,4,7,0,1,1785
5,47,0,0,1,4,4,6,4,7,0,0,1181
5,48,0,0,2,4,6,1,4,7,0,0,1262
5,49,0,0,3,4,1,3,4,4,1,0,1453
5,50,0,0,4,4,5,5,4,4,1,0,934
5,51,0,0,5,4,3,4,4,4,1,0,909
5,52,0,0,6,4,5,5,4,4,1,0,909
5,53,0,0,7,4,1,6,4,4,1,0,873
5,54,0,0,8,4,4,6,4,4,1,0,848
5,55,0,0,9,4,1,3,4,4,1,0,1241
5,56,0,0,10,4,4,5,4,4,0,0,1180
5,57,0,0,11,4,5,5,4,4,1,0,904
5,58,0,0,12,4,5,6,4,4,1,0,769
5,59,0,0,13,4,6,3,4,4,1,0,941
5,60,0,0,14,4,3,2,4,4,0,0,971
5,61,0,1,0,2,3,1,1,5,1,1,1681
5,62,0,1,1,2,4,1,1,5,1,0,1307
5,63,0,1,2,2,5,1,1,5,1,0,1311
5,64,0,1,3,2,5,1,1,5,1,0,824
5,65,0,1,4,2,6,1,1,5,1,0,775
5,66,0,1,5,2,4,1,1,5,1,0,1117
5,67,0,1,6,2,3,1,1,5,1,0,628
5,68,0,1,7,2,5,1,1,5,1,0,757
5,69,0,1,8,2,6,1,1,5,1,0,692
5,70,0,1,9,2,1,1,1,1,1,0,1280
5,71,0,1,10,2,1,1,1,1,1,0,975
5,72,0,1,11,2,4,1,1,5,1,0,970
5,73,0,1,12,2,6,1,1,5,1,0,833
5,74,0,1,13,2,2,1,1,1,1,0,1695
5,75,0,1,14,2,3,1,1,1,0,0,1352
5,76,0,1,15,2,4,1,1,1,0,0,1055
5,77,0,1,16,2,2,1,1,5,0,0,1191
5,78,0,1,17,2,3,1,1,5,1,0,843
5,79,0,1,18,2,3,1,1,5,1,0,909
5,80,0,1,19,2,1,1,1,1,1,0,1878
5,81,0,1,20,2,2,1,1,5,0,0,1479
5,82,0,1,21,2,5,1,1,5,1,0,1294
5,83,0,1,22,2,6,1,1,5,1,0,784
5,84,0,1,23,2,5,1,1,5,1,0,669
5,85,0,1,24,2,4,1,1,1,0,0,1710
5,86,0,1,0,3,5,3,3,6,0,1,1144
5,87,0,1,1,3,5,6,3,6,0,0,1043
5,88,0,1,2,3,4,5,3,8,1,0,1340
5,89,0,1,3,3,5,3,3,6,0,0,1906
5,90,0,1,4,3,2,3,3,8,0,0,1405
5,91,0,1,5,3,2,4,3,8,0,0,1060
5,92,0,1,6,3,2,2,3,8,0,0,1230
5,93,0,1,7,3,1,3,3,8,0,0,1002
5,94,0,1,8,3,2,4,3,8,0,0,673
5,95,0,1,9,3,4,3,3,8,0,0,1032
5,96,0,1,10,3,6,6,3,8,1,0,1154
5,97,0,1,11,3,1,3,3,8,0,0,1443
5,98,0,1,12,3,1,6,3,8,1,0,1095
5,99,0,1,13,3,5,2,3,6,0,0,976
5,100,0,1,14,3,3,3,3,6,1,0,1283
5,101,0,1,15,3,6,2,3,6,0,0,964
5,102,0,1,16,3,4,4,3,6,1,0,1470
5,103,0,1,17,3,4,3,3,6,1,0,968
5,104,0,1,18,3,2,6,3,8,1,0,1135
5,105,0,1,19,3,6,3,3,8,1,0,1311
5,106,0,1,20,3,6,2,3,6,0,0,1861
5,107,0,1,21,3,5,3,3,6,0,0,1221
5,108,0,1,0,4,1,5,4,4,1,1,995
5,109,0,1,1,4,6,4,4,4,1,0,934
5,110,0,1,2,4,4,3,4,4,1,0,1154
5,111,0,1,3,4,3,4,4,7,0,0,1129
5,112,0,1,4,4,6,6,4,4,1,0,1000
5,113,0,1,5,4,3,6,4,4,0,0,2196
5,114,0,1,6,4,2,1,4,4,1,0,1033
5,115,0,1,7,4,6,2,4,4,0,0,1139
5,116,0,1,8,4,5,6,4,4,1,0,841
5,117,0,1,9,4,3,2,4,4,1,0,846
5,118,0,1,10,4,5,2,4,4,0,0,1232
5,119,0,1,11,4,3,5,4,4,0,0,1263
5,120,0,1,12,4,6,4,4,4,0,0,1020
5,121,0,1,13,4,6,1,4,4,1,0,1041
5,122,0,1,14,4,1,4,4,7,0,0,1267
5,123,0,1,15,4,6,3,4,4,1,0,1636
5,124,0,1,16,4,2,1,4,4,1,0,1362
5,125,0,1,17,4,6,1,4,4,0,0,2737
5,126,0,1,18,4,2,6,4,4,1,0,2587
5,127,0,1,19,4,5,5,4,4,1,0,1374
5,128,0,1,20,4,6,6,4,4,1,0,2120
5,129,0,1,21,4,5,3,4,7,0,0,1782
5,130,0,1,22,4,3,4,4,7,1,0,1215
5,131,0,1,23,4,5,5,4,7,0,0,2553
5,132,0,1,24,4,6,6,4,4,1,0,1516
5,133,0,1,25,4,5,6,4,4,1,0,903
5,134,0,1,26,4,5,4,4,7,0,0,1231
5,135,0,1,27,4,1,4,4,7,1,0,1356
5,136,0,1,28,4,4,3,4,4,1,0,2190
5,137,0,1,29,4,3,4,4,4,1,0,1070
5,138,0,1,30,4,6,2,4,7,1,0,1279
5,139,0,1,31,4,4,3,4,4,0,0,1105
5,140,0,1,32,4,2,2,4,4,1,0,1295
5,141,0,1,33,4,6,3,4,7,1,0,1302
5,142,0,1,34,4,4,2,4,4,1,0,2159
5,143,0,1,35,4,3,2,4,4,0,0,1056
5,144,0,1,36,4,1,1,4,4,1,0,1381
5,145,0,1,37,4,1,3,4,4,1,0,1540
5,146,0,1,38,4,2,6,4,7,0,0,1507
5,147,0,1,39,4,6,1,4,4,0,0,1165
5,148,0,1,0,2,1,1,1,5,0,1,814
5,149,0,1,1,2,1,1,1,1,1,0,1873
5,150,0,1,2,2,2,1,1,1,1,0,1616
5,151,0,1,3,2,2,1,1,1,1,0,1046
5,152,0,1,4,2,2,1,1,1,1,0,807
5,153,0,1,5,2,2,1,1,1,1,0,865
5,154,0,1,6,2,2,1,1,1,1,0,1283
5,155,0,1,7,2,5,1,1,5,1,0,1381
5,156,0,1,8,2,5,1,1,5,1,0,1037
5,157,0,1,9,2,5,1,1,5,1,0,1142
5,158,0,1,10,2,1,1,1,1,1,0,1197
5,159,0,1,11,2,4,1,1,1,0,0,1920
5,160,0,1,12,2,3,1,1,5,1,0,1109
5,161,0,1,13,2,2,1,1,1,1,0,1458
5,162,0,1,14,2,5,1,1,5,1,0,1331
5,163,0,1,15,2,4,1,1,5,1,0,1150
5,164,0,1,16,2,4,1,1,5,1,0,966
5,165,0,1,17,2,1,1,1,1,1,0,1493
5,166,0,1,18,2,2,1,1,1,1,0,1113
5,167,0,1,19,2,1,1,1,1,1,0,1061
5,168,0,1,20,2,4,1,1,5,1,0,1333
5,169,0,1,21,2,4,1,1,5,1,0,741
5,170,0,1,22,2,6,1,1,5,1,0,926
5,171,0,1,23,2,4,1,1,5,1,0,977
5,172,0,1,24,2,6,1,1,5,1,0,775
5,173,0,1,25,2,4,1,1,5,1,0,954
5,174,0,1,26,2,4,1,1,5,1,0,719
5,175,0,1,27,2,4,1,1,5,1,0,852
5,176,0,1,28,2,3,1,1,1,0,0,1825
5,177,0,1,29,2,3,1,1,1,0,0,1240
5,178,0,1,30,2,6,1,1,5,1,0,1062
5,179,0,1,31,2,2,1,1,1,1,0,2724
5,180,0,1,32,2,3,1,1,5,1,0,941
5,181,0,1,33,2,2,1,1,1,1,0,1502
5,182,0,1,34,2,5,1,1,5,1,0,1013
5,183,0,1,35,2,3,1,1,5,1,0,2318
5,184,0,1,36,2,1,1,1,1,1,0,1074
5,185,0,1,37,2,1,1,1,1,1,0,656
5,186,0,1,38,2,6,1,1,5,1,0,1325
5,187,0,1,39,2,6,1,1,5,1,0,709
5,188,0,1,40,2,3,1,1,5,1,0,1310
5,189,0,1,41,2,3,1,1,5,1,0,694
5,190,0,1,42,2,2,1,1,1,1,0,1173
5,191,0,1,43,2,2,1,1,1,1,0,792
5,192,0,1,44,2,4,1,1,5,1,0,1313
5,193,0,1,45,2,6,1,1,5,1,0,1370
5,194,0,1,46,2,6,1,1,5,1,0,854
5,195,0,1,47,2,6,1,1,5,1,0,804
5,196,0,1,48,2,5,1,1,5,1,0,933
5,197,0,1,49,2,5,1,1,5,1,0,904
5,198,0,1,50,2,3,1,1,5,1,0,1037
5,199,0,1,51,2,4,1,1,5,1,0,910
5,200,0,1,52,2,3,1,1,5,1,0,1179
5,201,0,1,53,2,6,1,1,5,1,0,884
5,202,0,1,54,2,3,1,1,5,1,0,885
5,203,0,1,55,2,1,1,1,1,1,0,1101
5,204,0,1,56,2,3,1,1,5,1,0,1069
5,205,0,1,57,2,4,1,1,5,1,0,760
5,206,0,1,58,2,5,1,1,5,1,0,772
5,207,0,1,59,2,5,1,1,5,1,0,642
5,208,0,1,60,2,2,1,1,5,0,0,3317
5,209,0,1,61,2,6,1,1,5,1,0,862
5,210,0,1,62,2,5,1,1,5,1,0,667
5,211,0,1,63,2,3,1,1,5,1,0,1008
5,212,0,1,64,2,5,1,1,5,1,0,669
5,213,0,1,65,2,2,1,1,1,1,0,979
5,214,0,1,66,2,2,1,1,1,1,0,749
5,215,0,1,67,2,2,1,1,1,1,0,753
5,216,0,1,68,2,5,1,1,5,1,0,1347
5,217,0,1,69,2,2,1,1,1,1,0,1353
5,218,0,1,70,2,5,1,1,5,1,0,841
5,219,0,1,71,2,5,1,1,5,1,0,870
5,220,0,1,72,2,6,1,1,5,1,0,957
5,221,0,1,73,2,1,1,1,1,1,0,1129
5,222,0,1,74,2,4,1,1,5,1,0,1779
5,223,0,1,75,2,6,1,1,5,1,0,634
5,224,0,1,76,2,4,1,1,5,1,0,962
5,225,0,1,77,2,1,1,1,1,1,0,1326
5,226,0,1,78,2,6,1,1,5,1,0,1381
5,227,0,1,79,2,2,1,1,1,1,0,1227
5,228,0,1,80,2,3,1,1,5,1,0,1216
5,229,0,1,81,2,2,1,1,1,1,0,949
5,230,0,1,82,2,4,1,1,5,1,0,1032
5,231,0,1,83,2,4,1,1,5,1,0,739
5,232,0,1,84,2,4,1,1,5,1,0,635
5,233,0,1,85,2,4,1,1,5,1,0,681
5,234,0,1,86,2,1,1,1,1,1,0,999
5,235,0,1,87,2,6,1,1,5,1,0,1341
5,236,0,1,88,2,6,1,1,5,1,0,716
5,237,0,1,89,2,4,1,1,5,1,0,903
5,238,0,1,90,2,6,1,1,5,1,0,706
5,239,0,1,91,2,1,1,1,1,1,0,1014
5,240,0,1,92,2,5,1,1,5,1,0,995
5,241,0,1,93,2,1,1,1,1,1,0,999
5,242,0,1,94,2,3,1,1,1,0,0,1690
5,243,0,1,95,2,5,1,1,5,1,0,1070
5,244,0,1,0,1,1,1,2,2,0,1,2443
5,245,0,1,1,1,4,6,2,2,1,0,1611
5,246,0,1,2,1,6,1,2,3,0,0,1181
5,247,0,1,3,1,3,1,2,3,1,0,972
5,248,0,1,4,1,1,6,2,3,1,0,2124
5,249,0,1,5,1,4,5,2,3,0,0,2163
5,250,0,1,6,1,3,5,2,3,1,0,1450
5,251,0,1,7,1,4,3,2,3,0,0,2117
5,252,0,1,8,1,6,3,2,2,1,0,1475
5,253,0,1,9,1,2,5,2,2,0,0,1739
5,254,0,1,10,1,1,4,2,2,0,0,1993
5,255,0,1,11,1,4,1,2,2,1,0,1264
5,256,0,1,12,1,1,5,2,2,0,0,1432
5,257,0,1,13,1,3,1,2,2,0,0,1027
5,258,0,1,14,1,3,2,2,3,1,0,1031
5,259,0,1,15,1,4,3,2,3,0,0,750
5,260,0,1,0,3,1,2,3,6,1,1,1446
5,261,0,1,1,3,3,4,3,6,1,0,1146
5,262,0,1,2,3,4,5,3,8,1,0,1294
5,263,0,1,3,3,3,1,3,8,0,0,1379
5,264,0,1,4,3,5,1,3,8,1,0,1035
5,265,0,1,5,3,5,6,3,8,1,0,1147
5,266,0,1,6,3,6,6,3,8,1,0,1147
5,267,0,1,7,3,3,5,3,6,0,0,1269
5,268,0,1,8,3,3,1,3,6,1,0,2324
5,269,0,1,9,3,2,5,3,6,0,0,1463
5,270,0,1,10,3,2,4,3,6,1,0,2231
5,271,0,1,11,3,6,6,3,8,1,0,2023
5,272,0,1,12,3,3,4,3,8,0,0,2474
5,273,0,1,13,3,2,4,3,8,0,0,1080
5,274,0,1,14,3,4,1,3,8,0,0,1331
5,275,0,1,15,3,2,6,3,8,1,0,1158
5,276,0,1,16,3,3,1,3,8,0,0,1869
5,277,0,1,17,3,2,4,3,8,0,0,985
5,278,0,1,18,3,5,4,3,6,0,0,1170
5,279,0,1,19,3,6,4,3,8,1,0,3250
5,280,0,1,20,3,4,5,3,8,1,0,1102
5,281,0,1,21,3,3,1,3,8,0,0,1275
5,282,0,1,22,3,4,3,3,8,0,0,1221
5,283,0,1,23,3,5,6,3,8,1,0,728
5,284,0,1,24,3,4,6,3,8,1,0,1029
5,285,0,1,25,3,5,4,3,8,1,0,1432
5,286,0,1,26,3,1,3,3,6,1,0,1168
5,287,0,1,27,3,3,4,3,6,1,0,1381
5,288,0,1,28,3,1,4,3,8,0,0,1186
5,289,0,1,29,3,2,5,3,6,0,0,1702
5,290,0,1,30,3,3,2,3,8,0,0,1043
5,291,0,1,31,3,6,4,3,8,1,0,839
5,292,0,1,32,3,2,3,3,6,1,0,1264
5,293,0,1,33,3,5,4,3,8,1,0,991
5,294,0,1,34,3,5,1,3,8,1,0,1090
5,295,0,1,35,3,5,5,3,8,1,0,966
5,296,0,1,36,3,4,5,3,8,1,0,938
5,297,0,1,37,3,1,4,3,6,1,0,1223
5,298,0,1,38,3,5,4,3,8,1,0,1004
5,299,0,1,39,3,5,1,3,8,1,0,1661
5,300,0,1,40,3,3,6,3,6,0,0,1150
5,301,0,1,41,3,2,3,3,6,1,0,1053
5,302,0,1,42,3,3,5,3,8,1,0,1226
5,303,0,1,43,3,1,4,3,6,1,0,843
5,304,0,1,44,3,5,2,3,8,1,0,997
5,305,0,1,45,3,3,2,3,8,0,0,1939
5,306,0,1,46,3,4,4,3,8,0,0,1074
5,307,0,1,47,3,6,6,3,8,1,0,2135
5,308,0,1,48,3,4,3,3,6,1,0,949
5,309,0,1,49,3,2,2,3,6,1,0,1628
5,310,0,1,50,3,6,4,3,8,1,0,975
5,311,0,1,51,3,1,1,3,6,1,0,1127
5,312,0,1,52,3,6,4,3,8,1,0,828
5,313,0,1,53,3,6,3,3,8,1,0,1177
6,1,0,0,0,1,2,1,3,7,1,1,1498
6,2,0,0,1,1,4,5,3,7,0,0,1217
6,3,0,0,2,1,2,3,3,4,0,0,1921
6,4,0,0,3,1,4,4,3,7,1,0,1429
6,5,0,0,4,1,1,2,3,4,0,0,1421
6,6,0,0,5,1,1,4,3,4,0,0,1266
6,7,0,0,6,1,3,2,3,7,1,0,1418
6,8,0,0,7,1,4,5,3,7,0,0,476
6,9,0,0,8,1,4,5,3,4,1,0,1215
6,10,0,0,9,1,2,2,3,7,1,0,709
6,11,0,0,10,1,6,4,3,7,0,0,1012
6,12,0,0,11,1,2,5,3,7,0,0,957
6,13,0,0,12,1,4,2,3,7,1,0,993
6,14,0,0,13,1,2,5,3,4,1,0,928
6,15,0,0,14,1,3,4,3,7,1,0,1034
6,16,0,0,0,4,1,4,2,6,1,1,1638
6,17,0,0,1,4,4,5,2,8,1,0,977
6,18,0,0,2,4,5,2,2,8,1,0,881
6,19,0,0,3,4,4,3,2,8,1,0,670
6,20,0,0,4,4,1,1,2,6,1,0,805
6,21,0,0,5,4,4,5,2,8,1,0,796
6,22,0,0,6,4,5,2,2,8,1,0,845
6,23,0,0,7,4,2,1,2,6,1,0,902
6,24,0,0,8,4,4,4,2,8,1,0,794
6,25,0,0,9,4,5,5,2,8,1,0,831
6,26,0,0,10,4,4,6,2,8,1,0,773
6,27,0,0,11,4,3,6,2,6,1,0,1344
6,28,0,0,12,4,5,1,2,8,1,0,855
6,29,0,0,13,4,2,1,2,6,1,0,826
6,30,0,0,14,4,4,5,2,8,1,0,1327
6,31,0,0,0,2,3,1,1,5,1,1,1016
6,32,0,0,1,2,2,1,1,5,0,0,869
6,33,0,0,2,2,6,1,1,1,0,0,2185
6,34,0,0,3,2,4,1,1,1,0,0,1570
6,35,0,0,4,2,3,1,1,1,0,0,1519
6,36,0,0,5,2,3,1,1,5,1,0,1251
6,37,0,0,6,2,6,1,1,1,0,0,1250
6,38,0,0,7,2,3,1,1,5,1,0,515
6,39,0,0,8,2,2,1,1,5,0,0,592
6,40,0,0,9,2,3,1,1,5,1,0,1008
6,41,0,0,10,2,2,1,1,1,1,0,750
6,42,0,0,11,2,1,1,1,1,1,0,998
6,43,0,0,12,2,1,1,1,1,1,0,885
6,44,0,0,13,2,3,1,1,5,1,0,913
6,45,0,0,14,2,5,1,1,5,1,0,792
6,46,0,0,0,3,5,4,4,3,0,1,1938
6,47,0,0,1,3,6,2,4,3,0,0,160
6,48,0,0,2,3,1,3,4,3,0,0,733
6,49,0,0,3,3,2,3,4,2,1,0,490
6,50,0,0,4,3,5,2,4,2,1,0,600
6,51,0,0,5,3,6,2,4,2,1,0,334
6,52,0,0,6,3,5,2,4,2,1,0,410
6,53,0,0,7,3,6,2,4,2,1,0,366
6,54,0,0,8,3,2,5,4,2,1,0,366
6,55,0,0,9,3,2,6,4,2,1,0,156
6,56,0,0,10,3,1,3,4,2,0,0,113
6,57,0,0,11,3,2,6,4,2,0,0,628
6,58,0,0,12,3,5,5,4,3,1,0,870
6,59,0,0,13,3,3,2,4,2,0,0,757
6,60,0,0,14,3,6,6,4,2,0,0,2097
6,61,0,1,0,4,3,5,2,6,1,1,1466
6,62,0,1,1,4,5,6,2,8,1,0,1000
6,63,0,1,2,4,3,5,2,6,1,0,1125
6,64,0,1,3,4,4,3,2,8,1,0,1090
6,65,0,1,4,4,3,4,2,6,1,0,1029
6,66,0,1,5,4,4,5,2,8,1,0,613
6,67,0,1,6,4,4,3,2,6,0,0,2347
6,68,0,1,7,4,2,4,2,6,1,0,1529
6,69,0,1,8,4,2,3,2,6,1,0,1275
6,70,0,1,9,4,2,4,2,6,1,0,451
6,71,0,1,10,4,3,1,2,8,0,0,934
6,72,0,1,11,4,2,1,2,6,1,0,805
6,73,0,1,12,4,6,6,2,8,1,0,763
6,74,0,1,13,4,4,5,2,8,1,0,862
6,75,0,1,14,4,5,6,2,8,1,0,723
6,76,0,1,15,4,4,6,2,8,1,0,2236
6,77,0,1,16,4,3,1,2,6,1,0,1021
6,78,0,1,17,4,3,3,2,6,1,0,659
6,79,0,1,18,4,1,5,2,6,1,0,999
6,80,0,1,19,4,3,1,2,6,1,0,717
6,81,0,1,20,4,6,1,2,8,1,0,678
6,82,0,1,21,4,5,2,2,8,1,0,651
6,83,0,1,22,4,6,5,2,8,1,0,928
6,84,0,1,23,4,6,1,2,8,1,0,563
6,85,0,1,24,4,1,1,2,6,1,0,788
6,86,0,1,25,4,1,3,2,6,1,0,939
6,87,0,1,26,4,2,3,2,6,1,0,731
6,88,0,1,27,4,5,5,2,8,1,0,845
6,89,0,1,28,4,5,4,2,8,1,0,915
6,90,0,1,29,4,6,4,2,8,1,0,842
6,91,0,1,30,4,5,2,2,8,1,0,876
6,92,0,1,31,4,4,5,2,8,1,0,751
6,93,0,1,32,4,5,5,2,8,1,0,646
6,94,0,1,33,4,5,1,2,8,1,0,764
6,95,0,1,34,4,6,5,2,8,1,0,792
6,96,0,1,0,2,1,1,1,1,1,1,2102
6,97,0,1,1,2,1,1,1,1,1,0,835
6,98,0,1,2,2,1,1,1,1,1,0,599
6,99,0,1,3,2,6,1,1,5,1,0,804
6,100,0,1,4,2,5,1,1,5,1,0,655
6,101,0,1,5,2,2,1,1,5,0,0,1604
6,102,0,1,6,2,6,1,1,5,1,0,788
6,103,0,1,7,2,5,1,1,5,1,0,721
6,104,0,1,8,2,6,1,1,5,1,0,616
6,105,0,1,9,2,3,1,1,5,1,0,1215
6,106,0,1,10,2,5,1,1,5,1,0,814
6,107,0,1,11,2,1,1,1,1,1,0,829
6,108,0,1,12,2,1,1,1,1,1,0,565
6,109,0,1,13,2,6,1,1,5,1,0,790
6,110,0,1,14,2,3,1,1,5,1,0,982
6,111,0,1,15,2,2,1,1,1,1,0,1040
6,112,0,1,16,2,6,1,1,5,1,0,692
6,113,0,1,17,2,2,1,1,1,1,0,1802
6,114,0,1,18,2,3,1,1,5,1,0,941
6,115,0,1,19,2,2,1,1,1,1,0,898
6,116,0,1,20,2,4,1,1,5,1,0,760
6,117,0,1,0,1,4,2,3,7,1,1,2538
6,118,0,1,1,1,1,3,3,4,0,0,1749
6,119,0,1,2,1,5,2,3,7,0,0,2452
6,120,0,1,3,1,4,3,3,7,1,0,3037
6,121,0,1,4,1,6,1,3,4,1,0,1640
6,122,0,1,5,1,1,5,3,7,0,0,3668
6,123,0,1,6,1,2,4,3,7,1,0,2611
6,124,0,1,7,1,4,3,3,7,1,0,1920
6,125,0,1,8,1,2,5,3,7,0,0,815
6,126,0,1,9,1,3,3,3,7,1,0,710
6,127,0,1,10,1,3,4,3,7,1,0,429
6,128,0,1,11,1,2,2,3,7,1,0,563
6,129,0,1,12,1,3,6,3,7,0,0,640
6,130,0,1,13,1,5,1,3,4,1,0,2245
6,131,0,1,14,1,4,3,3,4,0,0,1087
6,132,0,1,15,1,6,6,3,7,0,0,1080
6,133,0,1,16,1,6,4,3,4,1,0,1609
6,134,0,1,17,1,4,3,3,4,0,0,1020
6,135,0,1,18,1,5,3,3,7,0,0,1356
6,136,0,1,19,1,3,2,3,7,1,0,386
6,137,0,1,20,1,4,4,3,7,1,0,878
6,138,0,1,21,1,4,3,3,4,0,0,1408
6,139,0,1,22,1,1,1,3,4,0,0,101
6,140,0,1,23,1,2,6,3,7,0,0,1146
6,141,0,1,24,1,2,2,3,7,1,0,701
6,142,0,1,25,1,2,6,3,4,1,0,641
6,143,0,1,26,1,5,6,3,4,1,0,952
6,144,0,1,27,1,1,2,3,7,1,0,892
6,145,0,1,28,1,3,1,3,7,1,0,838
6,146,0,1,29,1,5,2,3,4,1,0,943
6,147,0,1,30,1,4,2,3,4,0,0,832
6,148,0,1,31,1,1,4,3,7,1,0,3554
6,149,0,1,32,1,5,2,3,7,0,0,1023
6,150,0,1,33,1,1,2,3,7,1,0,821
6,151,0,1,34,1,5,6,3,4,1,0,1835
6,152,0,1,35,1,1,5,3,7,0,0,1265
6,153,0,1,36,1,1,6,3,4,1,0,942
6,154,0,1,37,1,4,4,3,4,0,0,1787
6,155,0,1,38,1,3,6,3,4,1,0,1199
6,156,0,1,39,1,6,2,3,4,1,0,1098
6,157,0,1,40,1,6,5,3,4,1,0,901
6,158,0,1,41,1,6,4,3,4,1,0,782
6,159,0,1,42,1,6,1,3,4,1,0,865
6,160,0,1,43,1,2,4,3,7,1,0,957
6,161,0,1,44,1,1,4,3,4,0,0,1439
6,162,0,1,45,1,6,5,3,4,1,0,1037
6,163,0,1,46,1,5,6,3,4,1,0,694
6,164,0,1,47,1,5,3,3,7,0,0,1191
6,165,0,1,48,1,1,4,3,7,1,0,837
6,166,0,1,49,1,4,5,3,4,1,0,1447
6,167,0,1,50,1,4,5,3,7,0,0,1237
6,168,0,1,51,1,6,6,3,4,1,0,1053
6,169,0,1,52,1,4,2,3,7,1,0,1331
6,170,0,1,53,1,3,3,3,7,1,0,1091
6,171,0,1,54,1,3,4,3,7,1,0,991
6,172,0,1,55,1,2,6,3,4,1,0,861
6,173,0,1,56,1,5,5,3,4,1,0,966
6,174,0,1,57,1,1,2,3,7,1,0,856
6,175,0,1,58,1,3,6,3,4,1,0,1239
6,176,0,1,59,1,4,5,3,4,1,0,878
6,177,0,1,60,1,3,4,3,4,0,0,816
6,178,0,1,61,1,5,3,3,4,1,0,1184
6,179,0,1,62,1,3,3,3,4,0,0,1810
6,180,0,1,63,1,1,3,3,7,1,0,1015
6,181,0,1,64,1,5,2,3,4,1,0,925
6,182,0,1,65,1,1,1,3,7,1,0,836
6,183,0,1,66,1,5,2,3,4,1,0,843
6,184,0,1,67,1,2,4,3,7,1,0,824
6,185,0,1,68,1,6,5,3,4,1,0,1536
6,186,0,1,69,1,6,2,3,4,1,0,1536
6,187,0,1,70,1,3,3,3,7,1,0,1182
6,188,0,1,71,1,1,3,3,7,1,0,787
6,189,0,1,72,1,5,1,3,4,1,0,1023
6,190,0,1,73,1,2,3,3,7,1,0,1018
6,191,0,1,74,1,6,1,3,4,1,0,836
6,192,0,1,75,1,2,2,3,7,1,0,883
6,193,0,1,76,1,4,4,3,4,0,0,1012
6,194,0,1,77,1,1,4,3,7,1,0,842
6,195,0,1,78,1,3,4,3,7,1,0,780
6,196,0,1,79,1,5,2,3,4,1,0,1014
6,197,0,1,80,1,5,5,3,4,1,0,843
6,198,0,1,81,1,4,1,3,7,1,0,997
6,199,0,1,82,1,4,1,3,7,1,0,770
6,200,0,1,83,1,3,2,3,7,1,0,902
6,201,0,1,84,1,6,6,3,4,1,0,807
6,202,0,1,85,1,2,2,3,7,1,0,835
6,203,0,1,86,1,5,2,3,4,1,0,960
6,204,0,1,87,1,5,2,3,4,1,0,5586
6,205,0,1,88,1,6,1,3,4,1,0,708
6,206,0,1,89,1,5,3,3,4,1,0,700
6,207,0,1,90,1,6,3,3,4,1,0,760
6,208,0,1,91,1,1,1,3,7,1,0,1296
6,209,0,1,92,1,4,1,3,7,1,0,795
6,210,0,1,93,1,6,6,3,4,1,0,855
6,211,0,1,94,1,2,3,3,7,1,0,856
6,212,0,1,95,1,6,3,3,4,1,0,581
6,213,0,1,96,1,2,3,3,7,1,0,611
6,214,0,1,97,1,6,3,3,4,1,0,1134
6,215,0,1,98,1,4,5,3,4,1,0,846
6,216,0,1,99,1,3,5,3,4,1,0,729
6,217,0,1,100,1,5,3,3,7,0,0,747
6,218,0,1,101,1,2,6,3,4,1,0,767
6,219,0,1,102,1,1,2,3,7,1,0,778
6,220,0,1,103,1,3,6,3,4,1,0,773
6,221,0,1,104,1,4,1,3,4,0,0,1045
6,222,0,1,105,1,2,6,3,4,1,0,798
6,223,0,1,106,1,2,2,3,7,1,0,732
6,224,0,1,107,1,4,3,3,7,1,0,1090
6,225,0,1,108,1,3,2,3,7,1,0,1033
6,226,0,1,109,1,1,1,3,7,1,0,869
6,227,0,1,110,1,5,6,3,4,1,0,800
6,228,0,1,111,1,3,5,3,4,1,0,1342
6,229,0,1,112,1,3,3,3,7,1,0,989
6,230,0,1,113,1,1,5,3,4,1,0,874
6,231,0,1,114,1,4,4,3,4,0,0,1230
6,232,0,1,115,1,5,2,3,4,1,0,887
6,233,0,1,0,3,1,2,4,3,1,1,1117
6,234,0,1,1,3,1,6,4,3,1,0,1536
6,235,0,1,2,3,2,6,4,3,1,0,617
6,236,0,1,3,3,2,2,4,3,0,0,949
6,237,0,1,4,3,6,1,4,2,0,0,2444
6,238,0,1,5,3,6,1,4,3,1,0,1052
6,239,0,1,6,3,2,1,4,3,0,0,1328
6,240,0,1,7,3,1,6,4,3,0,0,1316
6,241,0,1,8,3,3,1,4,2,0,0,1256
6,242,0,1,9,3,6,2,4,3,1,0,1236
6,243,0,1,10,3,5,2,4,3,0,0,733
6,244,0,1,11,3,4,2,4,2,1,0,1527
6,245,0,1,12,3,5,3,4,2,1,0,770
6,246,0,1,13,3,4,6,4,2,0,0,645
6,247,0,1,14,3,3,3,4,3,1,0,264
6,248,0,1,15,3,5,5,4,3,0,0,479
6,249,0,1,16,3,4,4,4,3,1,0,209
6,250,0,1,17,3,5,1,4,3,1,0,538
6,251,0,1,18,3,5,5,4,3,1,0,625
6,252,0,1,19,3,1,5,4,3,1,0,496
6,253,0,1,20,3,5,2,4,3,0,0,554
6,254,0,1,21,3,3,5,4,3,1,0,859
6,255,0,1,22,3,2,5,4,3,0,0,500
6,256,0,1,23,3,1,2,4,3,1,0,106
6,257,0,1,24,3,1,1,4,3,1,0,576
6,258,0,1,25,3,4,6,4,3,1,0,231
6,259,0,1,26,3,3,2,4,3,0,0,330
6,260,0,1,27,3,1,1,4,3,1,0,331
6,261,0,1,28,3,4,3,4,3,1,0,487
6,262,0,1,29,3,1,3,4,3,1,0,523
6,263,0,1,30,3,5,1,4,2,0,0,868
6,264,0,1,31,3,5,3,4,3,0,0,122
6,265,0,1,32,3,3,4,4,3,0,0,111
6,266,0,1,33,3,5,3,4,3,0,0,537
6,267,0,1,34,3,3,3,4,3,0,0,655
6,268,0,1,35,3,2,2,4,3,1,0,114
6,269,0,1,36,3,5,1,4,3,1,0,210
6,270,0,1,37,3,1,3,4,3,1,0,138
6,271,0,1,38,3,1,4,4,3,0,0,108
6,272,0,1,39,3,3,1,4,3,0,0,1655
6,273,0,1,40,3,1,4,4,3,1,0,181
6,274,0,1,41,3,6,6,4,3,1,0,692
6,275,0,1,42,3,6,6,4,3,1,0,664
6,276,0,1,43,3,2,3,4,3,0,0,550
6,277,0,1,44,3,3,6,4,2,0,0,1359
6,278,0,1,45,3,1,4,4,3,0,0,499
6,279,0,1,46,3,4,4,4,2,1,0,83
6,280,0,1,47,3,5,2,4,3,0,0,882
6,281,0,1,48,3,3,4,4,3,0,0,127
6,282,0,1,49,3,6,6,4,2,1,0,106
6,283,0,1,50,3,6,3,4,3,1,0,309
6,284,0,1,51,3,1,1,4,3,0,0,183
6,285,0,1,52,3,6,2,4,2,1,0,601
6,286,0,1,53,3,1,4,4,3,0,0,210
6,287,0,1,54,3,2,6,4,3,1,0,604
6,288,0,1,55,3,5,6,4,2,1,0,459
6,289,0,1,56,3,1,3,4,3,0,0,248
6,290,0,1,57,3,6,6,4,3,0,0,81
6,291,0,1,58,3,2,6,4,3,0,0,559
6,292,0,1,59,3,1,2,4,2,0,0,139
6,293,0,1,60,3,5,2,4,3,1,0,152
6,294,0,1,61,3,4,2,4,3,1,0,238
6,295,0,1,62,3,3,6,4,3,1,0,163
6,296,0,1,63,3,5,6,4,3,0,0,98
6,297,0,1,64,3,2,3,4,2,0,0,128
6,298,0,1,65,3,3,2,4,3,0,0,510
6,299,0,1,66,3,4,4,4,3,1,0,100
6,300,0,1,67,3,4,2,4,3,0,0,128
6,301,0,1,68,3,1,3,4,3,1,0,2331
6,302,0,1,69,3,1,6,4,3,0,0,227
6,303,0,1,70,3,4,2,4,3,0,0,4120
6,304,0,1,71,3,5,2,4,3,0,0,620
6,305,0,1,72,3,5,4,4,3,1,0,122
6,306,0,1,73,3,5,3,4,3,0,0,174
6,307,0,1,74,3,4,3,4,2,0,0,794
6,308,0,1,75,3,5,6,4,3,1,0,202
6,309,0,1,76,3,3,1,4,3,0,0,207
6,310,0,1,77,3,1,5,4,3,1,0,693
7,1,1,0,0,2,1,6,2,8,0,1,2470
7,2,1,0,1,2,5,6,2,6,0,0,7467
7,3,1,0,2,2,2,3,2,6,1,0,2422
7,4,1,0,3,2,6,6,2,6,0,0,3797
7,5,1,0,4,2,1,1,2,6,1,0,1206
7,6,1,0,5,2,5,5,2,6,0,0,8457
7,7,1,0,6,2,6,4,2,8,1,0,1858
7,8,1,0,7,2,2,1,2,6,1,0,1167
7,9,1,0,8,2,4,3,2,8,1,0,11378
7,10,1,0,9,2,4,4,2,8,1,0,1007
7,11,1,0,10,2,5,5,2,8,1,0,952
7,12,1,0,11,2,2,3,2,6,1,0,832
7,13,1,0,12,2,2,2,2,6,1,0,1111
7,14,1,0,13,2,4,3,2,6,0,0,1056
7,15,1,0,14,2,6,1,2,8,1,0,395
7,16,1,0,0,3,2,1,4,1,0,1,5442
7,17,1,0,1,3,4,4,4,1,1,0,1251
7,18,1,0,2,3,4,6,4,1,0,0,8703
7,19,1,0,3,3,3,5,4,5,0,0,1555
7,20,1,0,4,3,2,1,4,5,0,0,1182
7,21,1,0,5,3,2,5,4,1,1,0,1289
7,22,1,0,6,3,2,5,4,1,1,0,1213
7,23,1,0,7,3,2,4,4,1,1,0,2628
7,24,1,0,8,3,1,2,4,5,0,0,1827
7,25,1,0,9,3,3,1,4,1,0,0,846
7,26,1,0,10,3,4,4,4,1,1,0,2132
7,27,1,0,11,3,5,6,4,1,0,0,2124
7,28,1,0,12,3,6,2,4,5,1,0,7901
7,29,1,0,13,3,2,4,4,1,0,0,2588
7,30,1,0,14,3,1,2,4,5,1,0,1218
7,31,1,0,0,1,6,5,3,4,1,1,6744
7,32,1,0,1,1,1,3,3,4,0,0,2474
7,33,1,0,2,1,2,6,3,7,0,0,9839
7,34,1,0,3,1,2,5,3,4,1,0,895
7,35,1,0,4,1,4,1,3,7,1,0,6230
7,36,1,0,5,1,5,2,3,7,0,0,6565
7,37,1,0,6,1,5,2,3,4,1,0,1350
7,38,1,0,7,1,6,2,3,4,1,0,1969
7,39,1,0,8,1,2,3,3,4,0,0,4460
7,40,1,0,9,1,4,5,3,4,1,0,1102
7,41,1,0,10,1,5,4,3,4,1,0,1333
7,42,1,0,11,1,2,5,3,7,0,0,1098
7,43,1,0,12,1,6,4,3,4,1,0,927
7,44,1,0,13,1,6,4,3,4,1,0,1221
7,45,1,0,14,1,4,5,3,4,1,0,816
7,46,1,0,0,4,2,1,1,3,1,1,4923
7,47,1,0,1,4,3,1,1,3,0,0,1559
7,48,1,0,2,4,6,1,1,3,0,0,1455
7,49,1,0,3,4,5,1,1,2,1,0,1148
7,50,1,0,4,4,4,1,1,2,1,0,1312
7,51,1,0,5,4,6,1,1,2,1,0,2112
7,52,1,0,6,4,6,1,1,2,1,0,1015
7,53,1,0,7,4,1,1,1,3,1,0,1225
7,54,1,0,8,4,6,1,1,2,1,0,1152
7,55,1,0,9,4,2,1,1,3,1,0,1121
7,56,1,0,10,4,5,1,1,2,1,0,1007
7,57,1,0,11,4,2,1,1,3,1,0,934
7,58,1,0,12,4,1,1,1,3,1,0,7880
7,59,1,0,13,4,6,1,1,2,1,0,3981
7,60,1,0,14,4,2,1,1,3,1,0,1006
7,61,1,1,0,1,5,2,3,7,0,1,5685
7,62,1,1,1,1,4,2,3,4,0,0,2691
7,63,1,1,2,1,1,5,3,4,1,0,2204
7,64,1,1,3,1,2,4,3,4,0,0,2561
7,65,1,1,4,1,6,2,3,4,1,0,1363
7,66,1,1,5,1,2,2,3,7,1,0,2966
7,67,1,1,6,1,1,4,3,7,1,0,1560
7,68,1,1,7,1,3,4,3,4,0,0,1829
7,69,1,1,8,1,4,4,3,7,1,0,1020
7,70,1,1,9,1,6,6,3,7,0,0,1618
7,71,1,1,10,1,2,3,3,7,1,0,1027
7,72,1,1,11,1,2,2,3,7,1,0,905
7,73,1,1,12,1,5,6,3,4,1,0,1208
7,74,1,1,13,1,2,2,3,7,1,0,1460
7,75,1,1,14,1,1,2,3,7,1,0,1832
7,76,1,1,15,1,4,5,3,4,1,0,1515
7,77,1,1,16,1,1,4,3,7,1,0,4550
7,78,1,1,17,1,3,3,3,4,0,0,1458
7,79,1,1,18,1,4,4,3,4,0,0,1748
7,80,1,1,19,1,2,3,3,7,1,0,1273
7,81,1,1,20,1,6,2,3,4,1,0,1142
7,82,1,1,21,1,4,2,3,4,0,0,1297
7,83,1,1,22,1,1,3,3,7,1,0,1436
7,84,1,1,23,1,5,1,3,4,1,0,1352
7,85,1,1,24,1,3,3,3,7,1,0,1188
7,86,1,1,25,1,4,5,3,4,1,0,2279
7,87,1,1,26,1,2,6,3,7,0,0,2787
7,88,1,1,27,1,2,5,3,4,1,0,1913
7,89,1,1,28,1,1,2,3,4,0,0,1357
7,90,1,1,29,1,5,1,3,4,1,0,1497
7,91,1,1,30,1,6,2,3,4,1,0,1119
7,92,1,1,31,1,2,6,3,7,0,0,2801
7,93,1,1,32,1,2,1,3,4,0,0,1137
7,94,1,1,33,1,6,6,3,4,1,0,1021
7,95,1,1,34,1,2,1,3,4,0,0,1156
7,96,1,1,35,1,6,3,3,4,1,0,1005
7,97,1,1,36,1,3,3,3,4,0,0,1628
7,98,1,1,37,1,2,3,3,7,1,0,963
7,99,1,1,38,1,4,3,3,4,0,0,3255
7,100,1,1,39,1,4,6,3,7,0,0,538
7,101,1,1,40,1,2,3,3,4,0,0,813
7,102,1,1,41,1,5,4,3,4,1,0,800
7,103,1,1,42,1,2,1,3,7,1,0,1422
7,104,1,1,43,1,5,6,3,4,1,0,1275
7,105,1,1,44,1,4,1,3,4,0,0,1030
7,106,1,1,45,1,4,1,3,7,1,0,1398
7,107,1,1,46,1,6,6,3,4,1,0,1018
7,108,1,1,47,1,5,2,3,7,0,0,1346
7,109,1,1,48,1,5,6,3,4,1,0,1609
7,110,1,1,49,1,2,1,3,7,1,0,1596
7,111,1,1,50,1,2,1,3,7,1,0,1134
7,112,1,1,51,1,2,3,3,7,1,0,1672
7,113,1,1,52,1,3,2,3,4,0,0,1324
7,114,1,1,53,1,5,3,3,4,1,0,1305
7,115,1,1,54,1,4,1,3,4,0,0,1387
7,116,1,1,55,1,1,5,3,7,0,0,780
7,117,1,1,56,1,5,6,3,4,1,0,657
7,118,1,1,57,1,5,6,3,4,1,0,2515
7,119,1,1,58,1,1,2,3,4,0,0,2192
7,120,1,1,59,1,2,3,3,7,1,0,1196
7,121,1,1,60,1,1,4,3,7,1,0,1188
7,122,1,1,61,1,1,4,3,7,1,0,861
7,123,1,1,62,1,4,1,3,4,0,0,1067
7,124,1,1,63,1,3,5,3,4,1,0,1397
7,125,1,1,64,1,6,6,3,4,1,0,973
7,126,1,1,65,1,1,6,3,7,0,0,1265
7,127,1,1,66,1,3,4,3,4,0,0,1019
7,128,1,1,67,1,6,6,3,4,1,0,5156
7,129,1,1,68,1,3,1,3,7,1,0,1686
7,130,1,1,69,1,3,5,3,4,1,0,1258
7,131,1,1,70,1,1,2,3,4,0,0,1322
7,132,1,1,0,4,2,1,1,3,1,1,4856
7,133,1,1,1,4,6,1,1,2,1,0,1138
7,134,1,1,2,4,5,1,1,2,1,0,1031
7,135,1,1,3,4,5,1,1,2,1,0,894
7,136,1,1,4,4,1,1,1,3,1,0,934
7,137,1,1,5,4,1,1,1,3,1,0,7220
7,138,1,1,0,3,3,5,4,1,1,1,6387
7,139,1,1,1,3,3,2,4,1,1,0,1425
7,140,1,1,2,3,1,3,4,5,0,0,1899
7,141,1,1,3,3,3,1,4,5,0,0,1171
7,142,1,1,4,3,4,4,4,1,0,0,1051
7,143,1,1,5,3,4,2,4,1,0,0,1073
7,144,1,1,6,3,1,4,4,1,1,0,1014
7,145,1,1,7,3,5,5,4,5,0,0,1570
7,146,1,1,8,3,2,4,4,5,0,0,2053
7,147,1,1,9,3,6,4,4,5,1,0,1915
7,148,1,1,10,3,1,2,4,5,0,0,1570
7,149,1,1,11,3,6,6,4,1,1,0,759
7,150,1,1,12,3,2,1,4,1,0,0,1910
7,151,1,1,13,3,2,2,4,5,0,0,296
7,152,1,1,14,3,3,4,4,1,0,0,1092
7,153,1,1,15,3,5,2,4,1,0,0,1131
7,154,1,1,16,3,4,5,4,1,1,0,971
7,155,1,1,17,3,6,6,4,1,0,0,3165
7,156,1,1,18,3,3,3,4,1,1,0,2161
7,157,1,1,19,3,6,4,4,1,1,0,1908
7,158,1,1,20,3,5,3,4,1,1,0,2658
7,159,1,1,21,3,4,1,4,5,0,0,1493
7,160,1,1,22,3,1,4,4,1,1,0,646
7,161,1,1,23,3,3,6,4,1,0,0,707
7,162,1,1,24,3,1,4,4,1,0,0,1012
7,163,1,1,25,3,6,2,4,1,1,0,904
7,164,1,1,26,3,2,5,4,1,0,0,966
7,165,1,1,27,3,1,4,4,5,0,0,1204
7,166,1,1,28,3,1,6,4,1,1,0,331
7,167,1,1,29,3,2,6,4,1,1,0,912
7,168,1,1,30,3,3,2,4,1,0,0,1112
7,169,1,1,31,3,2,5,4,1,1,0,846
7,170,1,1,32,3,5,5,4,1,1,0,1674
7,171,1,1,33,3,3,6,4,1,1,0,919
7,172,1,1,34,3,1,5,4,1,0,0,1805
7,173,1,1,35,3,4,1,4,5,0,0,1273
7,174,1,1,36,3,3,4,4,1,0,0,265
7,175,1,1,37,3,5,2,4,5,1,0,1168
7,176,1,1,38,3,1,2,4,5,1,0,1438
7,177,1,1,39,3,4,2,4,5,0,0,1131
7,178,1,1,40,3,5,3,4,5,0,0,1115
7,179,1,1,41,3,5,6,4,1,1,0,450
7,180,1,1,42,3,4,1,4,1,0,0,1112
7,181,1,1,43,3,5,4,4,1,1,0,14276
7,182,1,1,44,3,4,1,4,1,0,0,1335
7,183,1,1,45,3,4,4,4,1,0,0,770
7,184,1,1,46,3,3,3,4,1,0,0,1395
7,185,1,1,47,3,6,5,4,5,1,0,388
7,186,1,1,48,3,3,5,4,5,0,0,1040
7,187,1,1,0,4,4,1,1,2,1,1,1301
7,188,1,1,1,4,2,1,1,3,1,0,1684
7,189,1,1,2,4,5,1,1,2,1,0,921
7,190,1,1,3,4,2,1,1,2,0,0,880
7,191,1,1,4,4,3,1,1,2,1,0,2002
7,192,1,1,5,4,1,1,1,3,1,0,1152
7,193,1,1,6,4,1,1,1,3,1,0,749
7,194,1,1,7,4,1,1,1,3,1,0,692
7,195,1,1,8,4,1,1,1,3,1,0,636
7,196,1,1,9,4,4,1,1,2,1,0,921
7,197,1,1,10,4,2,1,1,3,1,0,898
7,198,1,1,11,4,2,1,1,3,1,0,917
7,199,1,1,12,4,1,1,1,3,1,0,1106
7,200,1,1,13,4,4,1,1,2,1,0,806
7,201,1,1,14,4,5,1,1,2,1,0,931
7,202,1,1,15,4,3,1,1,3,0,0,1241
7,203,1,1,16,4,1,1,1,3,1,0,731
7,204,1,1,17,4,6,1,1,2,1,0,1236
7,205,1,1,18,4,4,1,1,2,1,0,701
7,206,1,1,19,4,3,1,1,2,1,0,977
7,207,1,1,20,4,2,1,1,2,0,0,917
7,208,1,1,21,4,6,1,1,2,1,0,597
7,209,1,1,22,4,1,1,1,3,1,0,939
7,210,1,1,23,4,4,1,1,2,1,0,851
7,211,1,1,24,4,4,1,1,2,1,0,1623
7,212,1,1,25,4,1,1,1,3,1,0,1504
7,213,1,1,26,4,1,1,1,3,1,0,895
7,214,1,1,27,4,6,1,1,2,1,0,807
7,215,1,1,28,4,1,1,1,3,1,0,1897
7,216,1,1,29,4,6,1,1,2,1,0,1100
7,217,1,1,30,4,5,1,1,2,1,0,575
7,218,1,1,31,4,6,1,1,2,1,0,558
7,219,1,1,32,4,2,1,1,3,1,0,1050
7,220,1,1,33,4,2,1,1,3,1,0,854
7,221,1,1,34,4,3,1,1,2,1,0,1434
7,222,1,1,35,4,2,1,1,3,1,0,875
7,223,1,1,36,4,6,1,1,2,1,0,1366
7,224,1,1,37,4,4,1,1,2,1,0,974
7,225,1,1,38,4,2,1,1,3,1,0,940
7,226,1,1,39,4,3,1,1,2,1,0,1514
7,227,1,1,40,4,5,1,1,2,1,0,1010
7,228,1,1,41,4,6,1,1,2,1,0,928
7,229,1,1,42,4,6,1,1,2,1,0,616
7,230,1,1,43,4,4,1,1,2,1,0,737
7,231,1,1,44,4,1,1,1,3,1,0,1738
7,232,1,1,0,1,6,2,3,4,1,1,2953
7,233,1,1,1,1,2,1,3,7,1,0,2460
7,234,1,1,2,1,3,6,3,7,0,0,3891
7,235,1,1,3,1,6,4,3,4,1,0,1768
7,236,1,1,4,1,3,5,3,4,1,0,2686
7,237,1,1,5,1,2,1,3,7,1,0,2855
7,238,1,1,6,1,5,5,3,4,1,0,1837
7,239,1,1,7,1,3,2,3,7,1,0,1378
7,240,1,1,8,1,6,3,3,4,1,0,1291
7,241,1,1,9,1,3,4,3,7,1,0,1885
7,242,1,1,10,1,5,2,3,7,0,0,2084
7,243,1,1,11,1,3,5,3,7,0,0,1396
7,244,1,1,12,1,5,2,3,4,1,0,1140
7,245,1,1,13,1,5,5,3,4,1,0,772
7,246,1,1,14,1,6,4,3,4,1,0,792
7,247,1,1,15,1,2,1,3,7,1,0,1292
7,248,1,1,16,1,2,5,3,7,0,0,2347
7,249,1,1,17,1,5,4,3,4,1,0,871
7,250,1,1,18,1,6,1,3,4,1,0,1145
7,251,1,1,19,1,2,4,3,4,0,0,1131
7,252,1,1,20,1,3,5,3,7,0,0,1645
7,253,1,1,21,1,4,5,3,4,1,0,825
7,254,1,1,22,1,3,4,3,7,1,0,1347
7,255,1,1,23,1,2,6,3,4,1,0,1776
7,256,1,1,24,1,5,2,3,7,0,0,3393
7,257,1,1,25,1,4,6,3,4,1,0,1120
7,258,1,1,26,1,4,2,3,4,0,0,914
7,259,1,1,27,1,3,3,3,4,0,0,1477
7,260,1,1,28,1,1,6,3,4,1,0,1455
7,261,1,1,29,1,3,1,3,7,1,0,1941
7,262,1,1,30,1,6,3,3,7,0,0,1246
7,263,1,1,31,1,4,5,3,4,1,0,995
7,264,1,1,32,1,1,5,3,7,0,0,2576
7,265,1,1,33,1,1,1,3,4,0,0,2412
7,266,1,1,34,1,6,4,3,4,1,0,1947
7,267,1,1,35,1,1,5,3,4,1,0,2119
7,268,1,1,36,1,2,6,3,7,0,0,4103
7,269,1,1,37,1,4,6,3,4,1,0,590
7,270,1,1,38,1,6,1,3,4,1,0,1912
7,271,1,1,39,1,4,2,3,7,1,0,1188
7,272,1,1,40,1,1,6,3,4,1,0,5101
7,273,1,1,41,1,1,4,3,7,1,0,1335
7,274,1,1,42,1,5,5,3,4,1,0,1073
7,275,1,1,43,1,4,4,3,4,0,0,1042
7,276,1,1,44,1,5,6,3,7,0,0,509
7,277,1,1,45,1,4,4,3,4,0,0,327
7,278,1,1,46,1,1,1,3,7,1,0,555
7,279,1,1,47,1,2,4,3,4,0,0,1605
7,280,1,1,48,1,3,4,3,4,0,0,734
7,281,1,1,49,1,1,4,3,4,0,0,903
7,282,1,1,50,1,6,2,3,4,1,0,1034
7,283,1,1,51,1,1,6,3,7,0,0,1410
7,284,1,1,52,1,3,4,3,7,1,0,1050
7,285,1,1,53,1,4,1,3,4,0,0,1146
7,286,1,1,54,1,5,3,3,4,1,0,1128
7,287,1,1,55,1,2,6,3,7,0,0,1617
7,288,1,1,56,1,5,6,3,4,1,0,764
7,289,1,1,57,1,5,1,3,4,1,0,807
7,290,1,1,58,1,2,1,3,7,1,0,1162
7,291,1,1,59,1,6,2,3,7,0,0,1323
7,292,1,1,60,1,1,5,3,4,1,0,990
7,293,1,1,61,1,3,1,3,4,0,0,1650
7,294,1,1,62,1,4,3,3,4,0,0,1093
7,295,1,1,63,1,5,1,3,4,1,0,914
7,296,1,1,64,1,6,1,3,4,1,0,1019
7,297,1,1,65,1,5,1,3,4,1,0,902
7,298,1,1,66,1,3,6,3,7,0,0,1121
7,299,1,1,67,1,5,5,3,7,0,0,1252
7,300,1,1,68,1,1,5,3,7,0,0,906
7,301,1,1,69,1,4,5,3,4,1,0,779
7,302,1,1,70,1,4,2,3,7,1,0,1907
7,303,1,1,71,1,6,2,3,4,1,0,704
7,304,1,1,72,1,4,2,3,7,1,0,1683
7,305,1,1,73,1,2,1,3,7,1,0,1413
7,306,1,1,74,1,3,5,3,4,1,0,1165
7,307,1,1,75,1,1,5,3,4,1,0,1420
7,308,1,1,76,1,1,5,3,4,1,0,905
7,309,1,1,77,1,6,1,3,4,1,0,1187
7,310,1,1,78,1,4,6,3,4,1,0,1104
7,311,1,1,79,1,4,1,3,4,0,0,1907
8,1,1,0,0,4,6,6,2,3,0,1,2788
8,2,1,0,1,4,4,6,2,2,1,0,1142
8,3,1,0,2,4,6,3,2,2,1,0,1787
8,4,1,0,3,4,3,4,2,2,0,0,1616
8,5,1,0,4,4,5,2,2,3,0,0,804
8,6,1,0,5,4,4,6,2,2,1,0,1307
8,7,1,0,6,4,3,2,2,3,1,0,1968
8,8,1,0,7,4,2,5,2,3,1,0,1353
8,9,1,0,8,4,2,3,2,3,1,0,1425
8,10,1,0,9,4,5,5,2,2,1,0,2926
8,11,1,0,10,4,2,2,2,3,1,0,3376
8,12,1,0,11,4,6,2,2,2,1,0,1427
8,13,1,0,12,4,6,6,2,2,1,0,1472
8,14,1,0,13,4,2,6,2,3,1,0,2489
8,15,1,0,14,4,4,6,2,3,0,0,1043
8,16,1,0,0,1,3,1,4,5,1,1,1442
8,17,1,0,1,1,3,5,4,1,0,0,1955
8,18,1,0,2,1,2,4,4,1,1,0,1368
8,19,1,0,3,1,2,6,4,5,1,0,1854
8,20,1,0,4,1,2,3,4,1,1,0,1953
8,21,1,0,5,1,5,3,4,5,1,0,1451
8,22,1,0,6,1,2,3,4,1,0,0,1587
8,23,1,0,7,1,6,2,4,5,1,0,1829
8,24,1,0,8,1,2,5,4,1,0,0,1549
8,25,1,0,9,1,1,6,4,5,1,0,1315
8,26,1,0,10,1,1,5,4,5,0,0,1188
8,27,1,0,11,1,6,5,4,5,0,0,1441
8,28,1,0,12,1,4,6,4,5,1,0,860
8,29,1,0,13,1,1,3,4,1,1,0,1326
8,30,1,0,14,1,5,4,4,1,0,0,1416
8,31,1,0,0,3,5,5,3,8,1,1,1186
8,32,1,0,1,3,6,2,3,6,0,0,1723
8,33,1,0,2,3,4,1,3,8,0,0,1085
8,34,1,0,3,3,2,6,3,8,1,0,1212
8,35,1,0,4,3,6,5,3,8,1,0,1211
8,36,1,0,5,3,6,3,3,6,0,0,1402
8,37,1,0,6,3,1,5,3,8,1,0,673
8,38,1,0,7,3,4,3,3,8,0,0,1146
8,39,1,0,8,3,1,2,3,8,0,0,1583
8,40,1,0,9,3,3,5,3,8,1,0,1266
8,41,1,0,10,3,4,4,3,8,0,0,1100
8,42,1,0,11,3,5,5,3,8,1,0,900
8,43,1,0,12,3,3,4,3,6,1,0,1120
8,44,1,0,13,3,6,5,3,6,0,0,955
8,45,1,0,14,3,4,2,3,6,1,0,1648
8,46,1,0,0,2,2,1,1,7,1,1,1298
8,47,1,0,1,2,1,1,1,7,1,0,1346
8,48,1,0,2,2,2,1,1,7,1,0,1144
8,49,1,0,3,2,4,1,1,7,0,0,1241
8,50,1,0,4,2,5,1,1,7,0,0,1658
8,51,1,0,5,2,5,1,1,4,1,0,1135
8,52,1,0,6,2,1,1,1,4,0,0,996
8,53,1,0,7,2,1,1,1,7,1,0,1224
8,54,1,0,8,2,5,1,1,7,0,0,1921
8,55,1,0,9,2,4,1,1,4,1,0,1502
8,56,1,0,10,2,4,1,1,7,0,0,1659
8,57,1,0,11,2,6,1,1,7,0,0,1675
8,58,1,0,12,2,4,1,1,4,1,0,1479
8,59,1,0,13,2,5,1,1,4,1,0,974
8,60,1,0,14,2,3,1,1,4,1,0,1100
8,61,1,1,0,4,5,6,2,2,1,1,1824
8,62,1,1,1,4,1,5,2,3,1,0,1302
8,63,1,1,2,4,1,5,2,3,1,0,927
8,64,1,1,3,4,5,2,2,2,1,0,1461
8,65,1,1,4,4,3,2,2,3,1,0,1514
8,66,1,1,5,4,3,1,2,3,1,0,1203
8,67,1,1,6,4,6,6,2,2,1,0,1385
8,68,1,1,7,4,3,5,2,3,1,0,1386
8,69,1,1,8,4,1,4,2,3,1,0,1809
8,70,1,1,9,4,6,1,2,2,1,0,1471
8,71,1,1,10,4,1,5,2,3,1,0,1720
8,72,1,1,11,4,5,3,2,2,1,0,1453
8,73,1,1,12,4,4,4,2,2,1,0,940
8,74,1,1,13,4,4,6,2,3,0,0,1885
8,75,1,1,14,4,3,1,2,3,1,0,1574
8,76,1,1,15,4,5,4,2,2,1,0,1610
8,77,1,1,16,4,1,1,2,3,1,0,1459
8,78,1,1,0,3,3,6,3,8,1,1,1654
8,79,1,1,1,3,4,2,3,6,1,0,1493
8,80,1,1,2,3,5,1,3,8,1,0,1807
8,81,1,1,3,3,2,5,3,8,1,0,2371
8,82,1,1,4,3,2,6,3,8,1,0,1512
8,83,1,1,5,3,5,2,3,6,0,0,1701
8,84,1,1,6,3,5,4,3,8,1,0,341
8,85,1,1,7,3,4,6,3,8,1,0,759
8,86,1,1,8,3,2,5,3,8,1,0,822
8,87,1,1,9,3,3,5,3,8,1,0,1043
8,88,1,1,10,3,4,6,3,8,1,0,847
8,89,1,1,11,3,1,3,3,6,1,0,1547
8,90,1,1,12,3,3,6,3,8,1,0,1343
8,91,1,1,13,3,2,6,3,8,1,0,717
8,92,1,1,14,3,3,6,3,8,1,0,681
8,93,1,1,15,3,6,4,3,6,0,0,1458
8,94,1,1,16,3,6,2,3,8,1,0,400
8,95,1,1,17,3,2,5,3,8,1,0,603
8,96,1,1,18,3,5,3,3,8,1,0,1512
8,97,1,1,19,3,4,4,3,8,0,0,1289
8,98,1,1,20,3,4,6,3,8,1,0,1436
8,99,1,1,21,3,1,5,3,8,1,0,1423
8,100,1,1,22,3,2,2,3,6,1,0,1573
8,101,1,1,23,3,6,3,3,6,0,0,950
8,102,1,1,0,1,6,5,4,5,1,1,1248
8,103,1,1,1,1,6,5,4,5,0,0,439
8,104,1,1,2,1,6,3,4,1,0,0,1517
8,105,1,1,3,1,2,6,4,1,1,0,1246
8,106,1,1,4,1,6,2,4,5,1,0,1505
8,107,1,1,5,1,1,2,4,1,0,0,1377
8,108,1,1,6,1,5,5,4,5,1,0,1642
8,109,1,1,7,1,6,1,4,1,0,0,1365
8,110,1,1,8,1,5,3,4,5,1,0,751
8,111,1,1,9,1,4,1,4,5,1,0,675
8,112,1,1,10,1,5,1,4,5,1,0,794
8,113,1,1,11,1,3,6,4,5,0,0,805
8,114,1,1,12,1,5,4,4,5,0,0,432
8,115,1,1,13,1,2,2,4,5,1,0,703
8,116,1,1,14,1,3,6,4,5,0,0,625
8,117,1,1,15,1,2,6,4,1,1,0,1243
8,118,1,1,16,1,1,4,4,1,0,0,1236
8,119,1,1,17,1,6,4,4,5,0,0,348
8,120,1,1,18,1,2,6,4,1,1,0,320
8,121,1,1,19,1,4,3,4,5,1,0,1387
8,122,1,1,20,1,5,5,4,5,1,0,1379
8,123,1,1,21,1,3,3,4,5,1,0,727
8,124,1,1,22,1,6,5,4,5,1,0,787
8,125,1,1,23,1,1,3,4,1,1,0,1372
8,126,1,1,24,1,3,5,4,1,0,0,978
8,127,1,1,25,1,5,5,4,5,0,0,283
8,128,1,1,26,1,1,6,4,1,1,0,483
8,129,1,1,27,1,1,2,4,1,1,0,313
8,130,1,1,28,1,5,4,4,1,0,0,780
8,131,1,1,0,2,3,1,1,4,1,1,1511
8,132,1,1,1,2,2,1,1,4,0,0,775
8,133,1,1,2,2,3,1,1,7,0,0,1252
8,134,1,1,3,2,2,1,1,4,0,0,766
8,135,1,1,4,2,2,1,1,4,0,0,684
8,136,1,1,5,2,6,1,1,4,1,0,302
8,137,1,1,6,2,3,1,1,4,1,0,528
8,138,1,1,7,2,2,1,1,4,0,0,669
8,139,1,1,0,3,4,2,3,8,0,1,1265
8,140,1,1,0,4,5,1,2,2,1,1,1091
8,141,1,1,1,4,1,5,2,2,0,0,600
8,142,1,1,2,4,5,3,2,2,1,0,1108
8,143,1,1,3,4,6,5,2,2,1,0,880
8,144,1,1,4,4,2,3,2,3,1,0,1349
8,145,1,1,5,4,1,2,2,3,1,0,819
8,146,1,1,6,4,4,1,2,2,1,0,1367
8,147,1,1,7,4,2,2,2,3,1,0,1709
8,148,1,1,8,4,3,4,2,3,1,0,1824
8,149,1,1,9,4,5,6,2,2,1,0,1303
8,150,1,1,10,4,4,4,2,2,1,0,1589
8,151,1,1,11,4,4,3,2,2,1,0,912
8,152,1,1,12,4,2,1,2,3,1,0,1457
8,153,1,1,13,4,1,1,2,3,1,0,1079
8,154,1,1,14,4,3,5,2,3,1,0,1099
8,155,1,1,15,4,5,5,2,2,1,0,929
8,156,1,1,16,4,6,3,2,2,1,0,625
8,157,1,1,17,4,6,2,2,2,1,0,771
8,158,1,1,18,4,3,6,2,3,1,0,1644
8,159,1,1,19,4,6,4,2,3,0,0,959
8,160,1,1,20,4,4,6,2,2,1,0,420
8,161,1,1,21,4,4,5,2,2,1,0,916
8,162,1,1,22,4,1,3,2,3,1,0,2632
8,163,1,1,0,3,2,6,3,8,1,1,836
8,164,1,1,1,3,5,3,3,8,1,0,866
8,165,1,1,2,3,1,4,3,6,1,0,852
8,166,1,1,3,3,2,2,3,6,1,0,990
8,167,1,1,4,3,5,6,3,8,1,0,1063
8,168,1,1,5,3,2,3,3,6,1,0,1242
8,169,1,1,6,3,6,2,3,6,0,0,1034
8,170,1,1,7,3,2,5,3,8,1,0,1690
8,171,1,1,8,3,6,5,3,8,1,0,1198
8,172,1,1,9,3,2,3,3,6,1,0,1193
8,173,1,1,10,3,3,4,3,8,0,0,1088
8,174,1,1,0,1,5,1,4,5,1,1,768
8,175,1,1,1,1,1,1,4,1,0,0,1777
8,176,1,1,2,1,1,5,4,5,0,0,366
8,177,1,1,3,1,2,4,4,1,0,0,366
8,178,1,1,4,1,3,2,4,1,1,0,656
8,179,1,1,5,1,5,2,4,1,0,0,823
8,180,1,1,0,4,4,4,2,2,1,1,852
8,181,1,1,1,4,3,5,2,2,0,0,525
8,182,1,1,2,4,3,2,2,3,1,0,941
8,183,1,1,3,4,4,4,2,3,0,0,674
8,184,1,1,4,4,6,1,2,2,1,0,1250
8,185,1,1,5,4,3,3,2,3,1,0,1168
8,186,1,1,6,4,1,1,2,3,1,0,1429
8,187,1,1,7,4,2,1,2,3,1,0,1044
8,188,1,1,8,4,5,1,2,2,1,0,1258
8,189,1,1,9,4,6,4,2,2,1,0,942
8,190,1,1,10,4,2,2,2,3,1,0,1476
8,191,1,1,11,4,2,2,2,3,1,0,928
8,192,1,1,12,4,4,6,2,2,1,0,1339
8,193,1,1,13,4,6,5,2,2,1,0,875
8,194,1,1,14,4,5,3,2,3,0,0,948
8,195,1,1,15,4,1,6,2,2,0,0,320
8,196,1,1,16,4,2,4,2,3,1,0,994
8,197,1,1,17,4,6,4,2,2,1,0,1162
8,198,1,1,18,4,2,1,2,3,1,0,1136
8,199,1,1,0,3,6,3,3,8,1,1,642
8,200,1,1,1,3,2,3,3,8,0,0,1071
8,201,1,1,2,3,2,5,3,8,1,0,905
8,202,1,1,3,3,4,4,3,6,1,0,1268
8,203,1,1,4,3,2,6,3,6,0,0,1032
8,204,1,1,0,1,2,3,4,5,1,1,1516
8,205,1,1,1,1,3,4,4,5,0,0,1001
8,206,1,1,2,1,2,4,4,5,1,0,755
8,207,1,1,3,1,5,5,4,1,0,0,1223
8,208,1,1,4,1,1,4,4,1,0,0,1392
8,209,1,1,0,4,6,2,2,2,1,1,1322
8,210,1,1,1,4,5,2,2,2,1,0,2278
8,211,1,1,2,4,5,4,2,2,1,0,1938
8,212,1,1,3,4,2,4,2,3,1,0,1528
8,213,1,1,4,4,4,5,2,3,0,0,1305
8,214,1,1,5,4,5,6,2,2,1,0,1314
8,215,1,1,6,4,2,5,2,3,1,0,1247
8,216,1,1,7,4,1,1,2,3,1,0,905
8,217,1,1,8,4,5,6,2,2,1,0,1469
8,218,1,1,9,4,3,3,2,2,0,0,1025
8,219,1,1,10,4,3,6,2,3,1,0,1932
8,220,1,1,11,4,4,1,2,2,1,0,1588
8,221,1,1,12,4,6,5,2,2,1,0,1185
8,222,1,1,13,4,4,6,2,2,1,0,652
8,223,1,1,14,4,5,4,2,2,1,0,1022
8,224,1,1,15,4,3,6,2,2,0,0,1274
8,225,1,1,16,4,5,3,2,3,0,0,307
8,226,1,1,17,4,6,3,2,2,1,0,1490
8,227,1,1,0,1,5,5,4,5,1,1,816
8,228,1,1,1,1,6,2,4,5,1,0,1408
8,229,1,1,2,1,4,1,4,1,1,0,1381
8,230,1,1,3,1,1,4,4,1,1,0,1042
8,231,1,1,4,1,4,1,4,1,0,0,1110
8,232,1,1,5,1,2,4,4,1,1,0,1259
8,233,1,1,6,1,2,5,4,1,0,0,900
8,234,1,1,7,1,3,5,4,1,1,0,857
8,235,1,1,8,1,6,5,4,1,0,0,1220
8,236,1,1,9,1,1,4,4,1,0,0,965
8,237,1,1,10,1,5,2,4,1,0,0,670
8,238,1,1,11,1,1,6,4,1,1,0,828
8,239,1,1,12,1,6,5,4,5,0,0,1232
8,240,1,1,13,1,6,2,4,5,0,0,864
8,241,1,1,14,1,1,2,4,5,0,0,1041
8,242,1,1,15,1,5,4,4,1,1,0,868
8,243,1,1,16,1,3,2,4,1,0,0,892
8,244,1,1,17,1,1,4,4,1,0,0,1068
8,245,1,1,18,1,1,6,4,5,0,0,946
8,246,1,1,19,1,4,6,4,5,1,0,229
8,247,1,1,20,1,6,4,4,5,0,0,636
8,248,1,1,21,1,1,2,4,5,0,0,372
8,249,1,1,22,1,5,1,4,1,0,0,634
8,250,1,1,23,1,4,3,4,5,1,0,296
8,251,1,1,24,1,4,4,4,5,0,0,701
8,252,1,1,25,1,1,1,4,1,1,0,271
8,253,1,1,26,1,6,6,4,1,1,0,964
8,254,1,1,27,1,1,4,4,5,0,0,609
8,255,1,1,28,1,4,2,4,1,0,0,182
8,256,1,1,29,1,3,4,4,1,0,0,308
8,257,1,1,30,1,2,4,4,1,0,0,348
8,258,1,1,31,1,3,2,4,1,1,0,461
8,259,1,1,32,1,2,5,4,5,0,0,1526
8,260,1,1,33,1,6,4,4,1,1,0,372
8,261,1,1,34,1,4,2,4,1,0,0,272
8,262,1,1,35,1,4,4,4,1,1,0,210
8,263,1,1,36,1,1,6,4,1,1,0,770
8,264,1,1,37,1,4,6,4,1,1,0,396
8,265,1,1,38,1,2,3,4,1,0,0,390
8,266,1,1,39,1,2,2,4,1,1,0,551
8,267,1,1,40,1,1,6,4,1,1,0,440
8,268,1,1,41,1,2,1,4,1,1,0,663
8,269,1,1,42,1,6,3,4,1,1,0,291
8,270,1,1,43,1,1,3,4,1,0,0,456
8,271,1,1,44,1,2,5,4,1,1,0,306
8,272,1,1,45,1,4,4,4,1,1,0,311
8,273,1,1,46,1,6,4,4,1,1,0,371
8,274,1,1,47,1,4,6,4,1,1,0,561
8,275,1,1,48,1,6,1,4,1,0,0,1822
8,276,1,1,49,1,5,6,4,1,0,0,327
8,277,1,1,50,1,2,3,4,1,1,0,632
8,278,1,1,51,1,4,6,4,1,1,0,501
8,279,1,1,52,1,6,4,4,1,1,0,693
8,280,1,1,53,1,5,6,4,1,1,0,754
8,281,1,1,54,1,3,1,4,5,0,0,1041
8,282,1,1,55,1,6,1,4,1,0,0,430
8,283,1,1,56,1,2,6,4,5,1,0,415
8,284,1,1,57,1,1,5,4,5,1,0,581
8,285,1,1,58,1,6,2,4,5,1,0,813
8,286,1,1,59,1,3,3,4,5,0,0,733
8,287,1,1,60,1,2,1,4,1,0,0,288
8,288,1,1,61,1,2,1,4,1,1,0,972
8,289,1,1,62,1,2,5,4,1,0,0,296
8,290,1,1,63,1,5,2,4,5,1,0,230
8,291,1,1,64,1,2,5,4,5,0,0,427
8,292,1,1,65,1,4,3,4,1,1,0,301
8,293,1,1,66,1,4,6,4,1,0,0,766
8,294,1,1,67,1,5,3,4,1,0,0,333
8,295,1,1,68,1,4,4,4,5,0,0,251
8,296,1,1,69,1,6,2,4,5,0,0,1891
8,297,1,1,70,1,3,3,4,1,0,0,278
8,298,1,1,71,1,1,2,4,5,1,0,195
8,299,1,1,72,1,3,1,4,5,1,0,397
8,300,1,1,73,1,4,3,4,5,0,0,338
8,301,1,1,74,1,1,6,4,1,0,0,294
8,302,1,1,75,1,2,1,4,5,0,0,298
8,303,1,1,76,1,2,1,4,5,1,0,208
8,304,1,1,77,1,1,4,4,5,0,0,339
8,305,1,1,78,1,5,1,4,5,1,0,324
8,306,1,1,79,1,2,5,4,5,0,0,385
8,307,1,1,80,1,5,4,4,5,1,0,237
8,308,1,1,81,1,3,6,4,5,1,0,235
8,309,1,1,82,1,1,3,4,5,0,0,275
8,310,1,1,83,1,1,3,4,5,0,0,235
8,311,1,1,84,1,5,6,4,5,0,0,389
9,1,1,0,0,1,6,1,1,7,0,1,3273
9,2,1,0,1,1,1,1,1,7,1,0,2562
9,3,1,0,2,1,6,1,1,4,1,0,3727
9,4,1,0,3,1,2,1,1,7,1,0,5314
9,5,1,0,4,1,5,1,1,4,1,0,2402
9,6,1,0,5,1,1,1,1,7,1,0,1324
9,7,1,0,6,1,3,1,1,7,0,0,1641
9,8,1,0,7,1,5,1,1,4,1,0,2122
9,9,1,0,8,1,2,1,1,7,1,0,1020
9,10,1,0,9,1,6,1,1,4,1,0,1418
9,11,1,0,10,1,5,1,1,4,1,0,903
9,12,1,0,11,1,3,1,1,7,0,0,1534
9,13,1,0,12,1,6,1,1,4,1,0,1741
9,14,1,0,13,1,3,1,1,7,0,0,1713
9,15,1,0,14,1,3,1,1,4,1,0,1496
9,16,1,0,0,3,3,1,3,6,1,1,2119
9,17,1,0,1,3,4,5,3,8,1,0,1084
9,18,1,0,2,3,2,2,3,6,1,0,1055
9,19,1,0,3,3,5,1,3,6,0,0,1578
9,20,1,0,4,3,1,5,3,8,1,0,1288
9,21,1,0,5,3,4,5,3,8,1,0,781
9,22,1,0,6,3,5,3,3,6,0,0,1100
9,23,1,0,7,3,3,4,3,8,0,0,1076
9,24,1,0,8,3,2,2,3,6,1,0,2902
9,25,1,0,9,3,5,5,3,8,1,0,1111
9,26,1,0,10,3,1,5,3,6,0,0,2388
9,27,1,0,11,3,5,2,3,6,0,0,1414
9,28,1,0,12,3,3,2,3,6,1,0,1291
9,29,1,0,13,3,4,1,3,8,0,0,1549
9,30,1,0,14,3,1,1,3,6,1,0,1304
9,31,1,0,0,2,3,5,4,2,0,1,1285
9,32,1,0,1,2,6,1,4,2,0,0,1124
9,33,1,0,2,2,4,5,4,3,0,0,981
9,34,1,0,3,2,2,6,4,3,0,0,20955
9,35,1,0,4,2,3,2,4,2,1,0,834
9,36,1,0,5,2,4,3,4,2,0,0,1074
9,37,1,0,6,2,6,3,4,2,0,0,1215
9,38,1,0,7,2,5,3,4,2,1,0,1765
9,39,1,0,8,2,5,2,4,3,1,0,1455
9,40,1,0,9,2,4,4,4,3,1,0,1036
9,41,1,0,10,2,5,4,4,3,0,0,926
9,42,1,0,11,2,1,4,4,2,0,0,657
9,43,1,0,12,2,5,5,4,2,1,0,1207
9,44,1,0,13,2,5,6,4,3,0,0,1325
9,45,1,0,14,2,6,1,4,3,0,0,1325
9,46,1,0,0,4,5,3,2,1,0,1,857
9,47,1,0,1,4,1,2,2,1,1,0,1170
9,48,1,0,2,4,5,6,2,5,1,0,963
9,49,1,0,3,4,6,5,2,5,1,0,1048
9,50,1,0,4,4,2,6,2,1,1,0,790
9,51,1,0,5,4,3,4,2,1,1,0,1339
9,52,1,0,6,4,2,2,2,5,0,0,908
9,53,1,0,7,4,2,5,2,5,0,0,3292
9,54,1,0,8,4,1,5,2,1,1,0,2672
9,55,1,0,9,4,2,2,2,1,1,0,3849
9,56,1,0,10,4,2,3,2,1,1,0,585
9,57,1,0,11,4,2,3,2,5,0,0,917
9,58,1,0,12,4,1,6,2,5,0,0,841
9,59,1,0,13,4,5,3,2,5,1,0,1007
9,60,1,0,14,4,2,5,2,1,1,0,828
9,61,1,1,0,2,2,2,4,2,1,1,2365
9,62,1,1,1,2,6,1,4,3,0,0,2188
9,63,1,1,2,2,5,4,4,2,1,0,1792
9,64,1,1,3,2,6,4,4,2,1,0,2225
9,65,1,1,4,2,1,1,4,3,1,0,1356
9,66,1,1,5,2,4,1,4,3,0,0,981
9,67,1,1,6,2,2,6,4,2,0,0,2008
9,68,1,1,7,2,3,6,4,3,1,0,2428
9,69,1,1,8,2,2,3,4,2,1,0,1331
9,70,1,1,9,2,4,6,4,3,0,0,1655
9,71,1,1,10,2,2,1,4,3,1,0,1211
9,72,1,1,11,2,4,6,4,3,1,0,2268
9,73,1,1,12,2,3,4,4,2,1,0,828
9,74,1,1,13,2,1,4,4,2,1,0,1050
9,75,1,1,14,2,5,5,4,3,0,0,1517
9,76,1,1,15,2,2,2,4,3,1,0,1334
9,77,1,1,16,2,4,4,4,2,0,0,7930
9,78,1,1,17,2,3,4,4,2,0,0,706
9,79,1,1,18,2,3,5,4,2,0,0,1524
9,80,1,1,19,2,4,5,4,3,1,0,877
9,81,1,1,20,2,1,4,4,2,1,0,1064
9,82,1,1,21,2,2,5,4,3,1,0,967
9,83,1,1,22,2,4,3,4,2,1,0,963
9,84,1,1,23,2,4,6,4,3,0,0,1291
9,85,1,1,24,2,3,6,4,2,1,0,1387
9,86,1,1,25,2,4,6,4,2,0,0,691
9,87,1,1,26,2,6,5,4,3,0,0,1067
9,88,1,1,27,2,6,5,4,2,0,0,939
9,89,1,1,28,2,6,6,4,3,0,0,1195
9,90,1,1,29,2,5,5,4,2,0,0,2258
9,91,1,1,30,2,3,1,4,3,0,0,1730
9,92,1,1,31,2,2,6,4,2,1,0,1087
9,93,1,1,32,2,1,5,4,2,0,0,1224
9,94,1,1,33,2,4,4,4,3,1,0,1128
9,95,1,1,34,2,5,2,4,3,1,0,1452
9,96,1,1,35,2,1,3,4,3,1,0,1618
9,97,1,1,36,2,5,3,4,3,0,0,1108
9,98,1,1,37,2,6,5,4,3,0,0,1584
9,99,1,1,38,2,6,1,4,2,1,0,1381
9,100,1,1,39,2,4,6,4,2,1,0,1431
9,101,1,1,40,2,3,4,4,2,0,0,1307
9,102,1,1,41,2,5,3,4,3,1,0,743
9,103,1,1,42,2,6,3,4,3,0,0,1045
9,104,1,1,43,2,3,2,4,2,0,0,624
9,105,1,1,44,2,5,1,4,3,0,0,1364
9,106,1,1,0,3,5,2,3,6,0,1,1585
9,107,1,1,1,3,6,5,3,6,0,0,1341
9,108,1,1,2,3,5,1,3,6,0,0,1124
9,109,1,1,3,3,2,2,3,6,1,0,1841
9,110,1,1,4,3,2,5,3,6,0,0,1294
9,111,1,1,5,3,2,1,3,8,0,0,2030
9,112,1,1,6,3,2,5,3,6,0,0,877
9,113,1,1,7,3,2,6,3,8,1,0,1041
9,114,1,1,8,3,3,5,3,6,0,0,1853
9,115,1,1,9,3,4,4,3,6,1,0,1224
9,116,1,1,10,3,3,1,3,6,1,0,1061
9,117,1,1,11,3,3,2,3,6,1,0,1220
9,118,1,1,12,3,2,2,3,8,0,0,1064
9,119,1,1,13,3,1,2,3,8,0,0,1356
9,120,1,1,14,3,5,5,3,6,0,0,945
9,121,1,1,15,3,2,4,3,8,0,0,1124
9,122,1,1,16,3,4,3,3,8,0,0,530
9,123,1,1,17,3,3,4,3,6,1,0,1041
9,124,1,1,18,3,6,2,3,6,0,0,597
9,125,1,1,19,3,3,1,3,6,1,0,617
9,126,1,1,20,3,5,5,3,6,0,0,680
9,127,1,1,21,3,1,5,3,8,1,0,355
9,128,1,1,22,3,1,3,3,8,0,0,1076
9,129,1,1,23,3,4,6,3,6,0,0,650
9,130,1,1,24,3,6,1,3,8,1,0,417
9,131,1,1,0,4,3,3,2,1,1,1,494
9,132,1,1,1,4,1,4,2,5,0,0,885
9,133,1,1,2,4,4,3,2,1,0,0,850
9,134,1,1,3,4,5,2,2,5,1,0,1467
9,135,1,1,4,4,2,6,2,1,1,0,825
9,136,1,1,5,4,1,3,2,1,1,0,1134
9,137,1,1,6,4,2,6,2,1,1,0,861
9,138,1,1,7,4,3,4,2,5,0,0,1258
9,139,1,1,8,4,6,2,2,5,1,0,1834
9,140,1,1,9,4,2,5,2,1,1,0,909
9,141,1,1,10,4,6,3,2,5,1,0,1691
9,142,1,1,11,4,4,3,2,5,1,0,1155
9,143,1,1,12,4,1,1,2,1,1,0,1028
9,144,1,1,13,4,1,4,2,1,1,0,1037
9,145,1,1,14,4,1,4,2,1,1,0,845
9,146,1,1,15,4,3,5,2,5,0,0,1401
9,147,1,1,16,4,5,5,2,5,1,0,1814
9,148,1,1,17,4,3,5,2,1,1,0,2130
9,149,1,1,18,4,6,1,2,5,1,0,1077
9,150,1,1,19,4,4,6,2,1,0,0,1509
9,151,1,1,20,4,5,1,2,5,1,0,943
9,152,1,1,21,4,5,2,2,1,0,0,1027
9,153,1,1,22,4,6,4,2,5,1,0,1143
9,154,1,1,23,4,5,5,2,5,1,0,793
9,155,1,1,24,4,4,2,2,5,1,0,989
9,156,1,1,25,4,2,6,2,1,1,0,1106
9,157,1,1,26,4,5,4,2,5,1,0,1258
9,158,1,1,27,4,4,3,2,5,1,0,1311
9,159,1,1,28,4,4,3,2,5,1,0,675
9,160,1,1,29,4,1,2,2,1,1,0,923
9,161,1,1,30,4,4,4,2,1,0,0,901
9,162,1,1,31,4,2,4,2,1,1,0,987
9,163,1,1,32,4,1,2,2,1,1,0,784
9,164,1,1,33,4,6,4,2,5,1,0,1088
9,165,1,1,34,4,6,5,2,5,1,0,1065
9,166,1,1,35,4,3,5,2,1,1,0,3204
9,167,1,1,36,4,1,4,2,1,1,0,828
9,168,1,1,37,4,5,3,2,5,1,0,830
9,169,1,1,38,4,2,3,2,1,1,0,3287
9,170,1,1,0,1,3,1,1,7,0,1,1030
9,171,1,1,1,1,6,1,1,4,1,0,1440
9,172,1,1,2,1,2,1,1,7,1,0,948
9,173,1,1,3,1,3,1,1,7,0,0,986
9,174,1,1,4,1,3,1,1,7,0,0,1514
9,175,1,1,5,1,4,1,1,4,1,0,1711
9,176,1,1,6,1,1,1,1,7,1,0,864
9,177,1,1,7,1,1,1,1,7,1,0,1074
9,178,1,1,8,1,4,1,1,4,1,0,1035
9,179,1,1,9,1,6,1,1,4,1,0,807
9,180,1,1,10,1,1,1,1,7,1,0,991
9,181,1,1,11,1,1,1,1,7,1,0,1037
9,182,1,1,12,1,2,1,1,4,0,0,961
9,183,1,1,13,1,1,1,1,7,1,0,891
9,184,1,1,14,1,2,1,1,4,0,0,892
9,185,1,1,15,1,1,1,1,7,1,0,991
9,186,1,1,16,1,2,1,1,7,1,0,897
9,187,1,1,17,1,1,1,1,7,1,0,754
9,188,1,1,18,1,4,1,1,4,1,0,867
9,189,1,1,19,1,4,1,1,4,1,0,877
9,190,1,1,20,1,6,1,1,4,1,0,834
9,191,1,1,21,1,6,1,1,4,1,0,690
9,192,1,1,22,1,3,1,1,7,0,0,1230
9,193,1,1,23,1,2,1,1,4,0,0,1444
9,194,1,1,24,1,5,1,1,4,1,0,961
9,195,1,1,25,1,1,1,1,7,1,0,1022
9,196,1,1,26,1,3,1,1,4,1,0,871
9,197,1,1,27,1,5,1,1,4,1,0,24162
9,198,1,1,28,1,2,1,1,7,1,0,700
9,199,1,1,29,1,6,1,1,4,1,0,667
9,200,1,1,30,1,4,1,1,4,1,0,824
9,201,1,1,31,1,3,1,1,4,1,0,781
9,202,1,1,32,1,6,1,1,4,1,0,652
9,203,1,1,33,1,2,1,1,4,0,0,654
9,204,1,1,0,2,5,2,4,2,1,1,971
9,205,1,1,1,2,1,3,4,3,0,0,956
9,206,1,1,2,2,6,3,4,2,0,0,1715
9,207,1,1,3,2,3,2,4,2,1,0,3119
9,208,1,1,4,2,4,1,4,3,0,0,1298
9,209,1,1,5,2,4,4,4,2,0,0,1384
9,210,1,1,6,2,3,1,4,3,0,0,3735
9,211,1,1,7,2,4,3,4,2,0,0,1514
9,212,1,1,8,2,1,5,4,3,1,0,734
9,213,1,1,9,2,4,2,4,3,0,0,760
9,214,1,1,10,2,6,6,4,2,1,0,1535
9,215,1,1,11,2,6,5,4,2,1,0,3668
9,216,1,1,12,2,1,1,4,3,1,0,1057
9,217,1,1,13,2,2,5,4,3,1,0,941
9,218,1,1,14,2,3,1,4,3,0,0,1610
9,219,1,1,15,2,2,2,4,3,1,0,2922
9,220,1,1,16,2,1,6,4,3,1,0,914
9,221,1,1,17,2,1,2,4,3,1,0,878
9,222,1,1,18,2,2,6,4,3,1,0,867
9,223,1,1,19,2,2,3,4,3,1,0,805
9,224,1,1,20,2,2,4,4,3,0,0,848
9,225,1,1,21,2,6,2,4,2,0,0,975
9,226,1,1,22,2,5,4,4,2,1,0,978
9,227,1,1,23,2,6,4,4,2,0,0,997
9,228,1,1,24,2,1,1,4,3,0,0,1070
9,229,1,1,25,2,6,6,4,2,1,0,1702
9,230,1,1,26,2,1,3,4,3,1,0,780
9,231,1,1,27,2,4,1,4,2,0,0,1004
9,232,1,1,28,2,1,4,4,3,0,0,503
9,233,1,1,29,2,2,1,4,2,1,0,571
9,234,1,1,30,2,3,3,4,3,0,0,1194
9,235,1,1,0,4,6,5,2,5,1,1,1197
9,236,1,1,1,4,3,3,2,1,1,0,1158
9,237,1,1,2,4,2,6,2,1,1,0,824
9,238,1,1,3,4,1,2,2,1,1,0,718
9,239,1,1,4,4,5,6,2,5,1,0,938
9,240,1,1,5,4,1,2,2,1,1,0,1044
9,241,1,1,6,4,4,3,2,5,1,0,1035
9,242,1,1,7,4,3,6,2,1,1,0,11622
9,243,1,1,8,4,2,1,2,1,1,0,756
9,244,1,1,9,4,4,4,2,5,1,0,977
9,245,1,1,10,4,2,3,2,1,1,0,787
9,246,1,1,11,4,4,2,2,5,1,0,891
9,247,1,1,12,4,5,2,2,5,1,0,854
9,248,1,1,13,4,1,1,2,1,1,0,791
9,249,1,1,14,4,3,4,2,1,1,0,794
9,250,1,1,15,4,3,3,2,1,1,0,814
9,251,1,1,16,4,2,5,2,1,1,0,784
9,252,1,1,17,4,4,6,2,5,1,0,834
9,253,1,1,18,4,1,3,2,1,1,0,908
9,254,1,1,19,4,1,4,2,1,1,0,3499
9,255,1,1,20,4,1,3,2,1,1,0,741
9,256,1,1,21,4,3,2,2,5,0,0,900
9,257,1,1,22,4,5,5,2,5,1,0,880
9,258,1,1,0,2,2,2,4,2,1,1,1186
9,259,1,1,0,3,5,3,3,6,0,1,1612
9,260,1,1,1,3,6,6,3,8,1,0,1417
9,261,1,1,2,3,5,1,3,6,0,0,1248
9,262,1,1,3,3,2,1,3,8,0,0,1194
9,263,1,1,4,3,1,1,3,8,0,0,1108
9,264,1,1,5,3,6,3,3,6,0,0,1402
9,265,1,1,6,3,2,5,3,8,1,0,937
9,266,1,1,7,3,3,3,3,6,1,0,941
9,267,1,1,8,3,2,4,3,8,0,0,972
9,268,1,1,9,3,2,6,3,8,1,0,1068
9,269,1,1,10,3,6,3,3,6,0,0,1018
9,270,1,1,11,3,6,6,3,8,1,0,1141
9,271,1,1,12,3,5,4,3,8,1,0,1204
9,272,1,1,13,3,6,1,3,8,1,0,952
9,273,1,1,14,3,1,1,3,6,1,0,991
9,274,1,1,15,3,4,1,3,8,0,0,1034
9,275,1,1,16,3,3,3,3,8,0,0,962
9,276,1,1,17,3,4,2,3,6,1,0,1021
9,277,1,1,18,3,4,6,3,6,0,0,750
9,278,1,1,19,3,1,4,3,8,0,0,787
9,279,1,1,20,3,6,1,3,6,0,0,417
9,280,1,1,21,3,1,5,3,8,1,0,1183
9,281,1,1,22,3,4,1,3,8,0,0,1574
9,282,1,1,23,3,5,2,3,6,0,0,620
9,283,1,1,24,3,3,4,3,8,0,0,445
9,284,1,1,25,3,2,4,3,6,1,0,419
9,285,1,1,26,3,4,3,3,6,1,0,734
9,286,1,1,27,3,1,6,3,8,1,0,407
9,287,1,1,28,3,2,3,3,8,0,0,942
9,288,1,1,29,3,3,5,3,6,0,0,466
9,289,1,1,30,3,6,6,3,8,1,0,867
9,290,1,1,31,3,6,5,3,6,0,0,1249
9,291,1,1,32,3,1,2,3,8,0,0,425
9,292,1,1,33,3,6,3,3,8,1,0,509
9,293,1,1,34,3,6,1,3,8,1,0,889
9,294,1,1,35,3,3,4,3,6,1,0,854
9,295,1,1,36,3,6,5,3,8,1,0,433
9,296,1,1,37,3,4,3,3,8,0,0,344
9,297,1,1,38,3,6,1,3,6,0,0,887
9,298,1,1,39,3,2,5,3,8,1,0,160
9,299,1,1,40,3,6,3,3,8,1,0,517
9,300,1,1,41,3,1,1,3,8,0,0,564
9,301,1,1,42,3,5,4,3,8,1,0,314
9,302,1,1,43,3,2,1,3,6,1,0,654
9,303,1,1,44,3,3,2,3,6,1,0,362
9,304,1,1,45,3,2,2,3,6,1,0,429
9,305,1,1,46,3,6,3,3,8,1,0,985
9,306,1,1,47,3,5,1,3,8,1,0,834
9,307,1,1,48,3,1,5,3,8,1,0,394
9,308,1,1,49,3,6,6,3,6,0,0,370
9,309,1,1,50,3,1,6,3,8,1,0,238
9,310,1,1,51,3,2,4,3,8,0,0,314
10,1,0,0,0,1,1,1,1,1,1,1,2218
10,2,0,0,1,1,3,1,1,1,0,0,913
10,3,0,0,2,1,2,1,1,1,1,0,1650
10,4,0,0,3,1,1,1,1,5,0,0,1300
10,5,0,0,4,1,2,1,1,1,1,0,1803
10,6,0,0,5,1,1,1,1,1,1,0,1215
10,7,0,0,6,1,5,1,1,5,1,0,3397
10,8,0,0,7,1,1,1,1,1,1,0,1271
10,9,0,0,8,1,4,1,1,5,1,0,1245
10,10,0,0,9,1,1,1,1,1,1,0,1229
10,11,0,0,10,1,3,1,1,5,1,0,783
10,12,0,0,11,1,6,1,1,5,1,0,2333
10,13,0,0,12,1,1,1,1,1,1,0,773
10,14,0,0,13,1,5,1,1,5,1,0,676
10,15,0,0,14,1,6,1,1,5,1,0,1007
10,16,0,0,0,3,3,6,3,8,1,1,2627
10,17,0,0,1,3,4,5,3,8,1,0,667
10,18,0,0,2,3,3,4,3,8,0,0,934
10,19,0,0,3,3,3,6,3,8,1,0,1315
10,20,0,0,4,3,2,2,3,6,1,0,1022
10,21,0,0,5,3,6,1,3,6,0,0,1502
10,22,0,0,6,3,4,3,3,8,0,0,1202
10,23,0,0,7,3,3,1,3,6,1,0,1283
10,24,0,0,8,3,6,4,3,6,0,0,1597
10,25,0,0,9,3,1,5,3,8,1,0,842
10,26,0,0,10,3,6,6,3,8,1,0,662
10,27,0,0,11,3,6,3,3,6,0,0,839
10,28,0,0,12,3,5,5,3,8,1,0,706
10,29,0,0,13,3,1,5,3,8,1,0,639
10,30,0,0,14,3,4,1,3,6,1,0,1042
10,31,0,0,0,4,4,2,4,7,1,1,2164
10,32,0,0,1,4,4,4,4,7,1,0,1207
10,33,0,0,2,4,6,3,4,4,0,0,1262
10,34,0,0,3,4,1,4,4,4,1,0,1266
10,35,0,0,4,4,4,2,4,4,0,0,3614
10,36,0,0,5,4,2,5,4,7,0,0,1609
10,37,0,0,6,4,4,4,4,4,1,0,794
10,38,0,0,7,4,3,6,4,4,1,0,909
10,39,0,0,8,4,2,2,4,4,1,0,927
10,40,0,0,9,4,4,1,4,7,1,0,1821
10,41,0,0,10,4,5,2,4,4,1,0,1431
10,42,0,0,11,4,4,3,4,4,1,0,957
10,43,0,0,12,4,5,3,4,4,0,0,854
10,44,0,0,13,4,2,5,4,4,0,0,906
10,45,0,0,14,4,1,5,4,7,0,0,906
10,46,0,0,0,2,6,5,2,2,1,1,1488
10,47,0,0,1,2,5,5,2,2,1,0,902
10,48,0,0,2,2,1,1,2,3,1,0,975
10,49,0,0,3,2,6,2,2,2,1,0,1037
10,50,0,0,4,2,4,4,2,2,1,0,790
10,51,0,0,5,2,4,3,2,2,1,0,694
10,52,0,0,6,2,4,6,2,3,0,0,1231
10,53,0,0,7,2,2,2,2,2,0,0,282
10,54,0,0,8,2,5,3,2,3,0,0,547
10,55,0,0,9,2,2,5,2,2,0,0,523
10,56,0,0,10,2,4,6,2,3,0,0,343
10,57,0,0,11,2,2,1,2,2,0,0,678
10,58,0,0,12,2,1,3,2,3,1,0,630
10,59,0,0,13,2,6,2,2,3,0,0,525
10,60,0,0,14,2,3,1,2,2,0,0,658
10,61,0,1,0,1,6,1,1,5,1,1,1477
10,62,0,1,1,1,5,1,1,5,1,0,893
10,63,0,1,2,1,1,1,1,1,1,0,1267
10,64,0,1,3,1,1,1,1,1,1,0,613
10,65,0,1,4,1,6,1,1,5,1,0,758
10,66,0,1,5,1,3,1,1,5,1,0,1286
10,67,0,1,6,1,4,1,1,5,1,0,971
10,68,0,1,7,1,5,1,1,5,1,0,1197
10,69,0,1,8,1,1,1,1,1,1,0,1190
10,70,0,1,9,1,1,1,1,1,1,0,1064
10,71,0,1,10,1,4,1,1,5,1,0,886
10,72,0,1,11,1,6,1,1,5,1,0,1030
10,73,0,1,12,1,6,1,1,5,1,0,789
10,74,0,1,13,1,3,1,1,5,1,0,1486
10,75,0,1,14,1,1,1,1,1,1,0,846
10,76,0,1,15,1,6,1,1,5,1,0,1261
10,77,0,1,16,1,2,1,1,1,1,0,959
10,78,0,1,17,1,1,1,1,1,1,0,791
10,79,0,1,18,1,5,1,1,5,1,0,687
10,80,0,1,19,1,1,1,1,1,1,0,974
10,81,0,1,20,1,1,1,1,1,1,0,546
10,82,0,1,21,1,5,1,1,5,1,0,749
10,83,0,1,22,1,2,1,1,1,1,0,889
10,84,0,1,0,4,6,5,4,7,0,1,1308
10,85,0,1,0,1,6,1,1,5,1,1,1212
10,86,0,1,1,1,2,1,1,1,1,0,1030
10,87,0,1,2,1,6,1,1,5,1,0,613
10,88,0,1,3,1,6,1,1,5,1,0,591
10,89,0,1,4,1,5,1,1,5,1,0,716
10,90,0,1,5,1,2,1,1,1,1,0,813
10,91,0,1,6,1,4,1,1,5,1,0,606
10,92,0,1,7,1,2,1,1,1,1,0,974
10,93,0,1,8,1,2,1,1,1,1,0,1014
10,94,0,1,9,1,3,1,1,5,1,0,1711
10,95,0,1,10,1,3,1,1,5,1,0,773
10,96,0,1,11,1,6,1,1,5,1,0,1030
