sid,trial,condition,stage,blockTrial,family,D1,D2,category,choice,correct,switch,rt
0,1,1,0,0,4,4,5,2,5,1,1,5954
0,2,1,0,1,4,6,3,2,1,0,0,3075
0,3,1,0,2,4,6,6,2,5,1,0,1201
0,4,1,0,3,4,6,2,2,5,1,0,989
0,5,1,0,4,4,1,2,2,1,1,0,1870
0,6,1,0,5,4,2,3,2,1,1,0,1621
0,7,1,0,6,4,5,4,2,5,1,0,1973
0,8,1,0,7,4,6,4,2,5,1,0,1165
0,9,1,0,8,4,5,2,2,5,1,0,997
0,10,1,0,9,4,5,5,2,5,1,0,965
0,11,1,0,10,4,6,3,2,5,1,0,747
0,12,1,0,11,4,6,1,2,5,1,0,1493
0,13,1,0,12,4,4,4,2,5,1,0,6732
0,14,1,0,13,4,2,5,2,1,1,0,3060
0,15,1,0,14,4,1,6,2,1,1,0,978
0,16,1,0,0,1,5,6,4,3,1,1,2018
0,17,1,0,1,1,3,1,4,2,1,0,1551
0,18,1,0,2,1,4,2,4,2,0,0,1940
0,19,1,0,3,1,2,5,4,3,0,0,1859
0,20,1,0,4,1,5,5,4,3,1,0,1594
0,21,1,0,5,1,1,1,4,2,0,0,1580
0,22,1,0,6,1,5,1,4,3,0,0,3381
0,23,1,0,7,1,6,4,4,3,0,0,1888
0,24,1,0,8,1,5,3,4,2,1,0,1926
0,25,1,0,9,1,2,4,4,3,1,0,2321
0,26,1,0,10,1,6,2,4,2,0,0,2010
0,27,1,0,11,1,3,6,4,3,1,0,2171
0,28,1,0,12,1,4,2,4,3,0,0,2315
0,29,1,0,13,1,3,4,4,3,1,0,1943
0,30,1,0,14,1,2,3,4,3,1,0,1425
0,31,1,0,0,3,6,2,3,8,1,1,3167
0,32,1,0,1,3,3,5,3,6,0,0,1559
0,33,1,0,2,3,2,4,3,8,0,0,608
0,34,1,0,3,3,5,6,3,6,0,0,2030
0,35,1,0,4,3,4,4,3,8,0,0,2008
0,36,1,0,5,3,3,4,3,8,0,0,1359
0,37,1,0,6,3,5,2,3,8,1,0,1385
0,38,1,0,7,3,5,1,3,8,1,0,1183
0,39,1,0,8,3,3,2,3,6,1,0,2340
0,40,1,0,9,3,1,1,3,8,0,0,1810
0,41,1,0,10,3,2,1,3,8,0,0,1498
0,42,1,0,11,3,4,3,3,6,1,0,1336
0,43,1,0,12,3,1,4,3,6,1,0,1220
0,44,1,0,13,3,2,1,3,8,0,0,1647
0,45,1,0,14,3,1,5,3,6,0,0,1445
0,46,1,0,0,2,2,1,1,7,1,1,2203
0,47,1,0,1,2,3,1,1,7,0,0,1487
0,48,1,0,2,2,2,1,1,4,0,0,2574
0,49,1,0,3,2,2,1,1,7,1,0,1453
0,50,1,0,4,2,1,1,1,7,1,0,1264
0,51,1,0,5,2,3,1,1,7,0,0,1200
0,52,1,0,6,2,5,1,1,4,1,0,2153
0,53,1,0,7,2,4,1,1,4,1,0,2717
0,54,1,0,8,2,4,1,1,4,1,0,1442
0,55,1,0,9,2,3,1,1,4,1,0,1087
0,56,1,0,10,2,2,1,1,4,0,0,1071
0,57,1,0,11,2,5,1,1,7,0,0,3807
0,58,1,0,12,2,5,1,1,4,1,0,1864
0,59,1,0,13,2,6,1,1,4,1,0,1360
0,60,1,0,14,2,2,1,1,4,0,0,1038
0,61,1,1,0,4,5,4,2,5,1,1,1634
0,62,1,1,1,4,6,6,2,5,1,0,899
0,63,1,1,2,4,3,6,2,1,1,0,2275
0,64,1,1,3,4,4,5,2,1,0,0,4941
0,65,1,1,4,4,6,5,2,5,1,0,1236
0,66,1,1,5,4,4,2,2,5,1,0,2346
0,67,1,1,6,4,5,2,2,5,1,0,1168
0,68,1,1,7,4,6,4,2,5,1,0,1273
0,69,1,1,8,4,5,4,2,5,1,0,973
0,70,1,1,9,4,2,1,2,1,1,0,1965
0,71,1,1,10,4,3,1,2,1,1,0,3555
0,72,1,1,11,4,6,2,2,5,1,0,2440
0,73,1,1,12,4,5,1,2,5,1,0,2860
0,74,1,1,13,4,6,3,2,5,1,0,2548
0,75,1,1,14,4,5,4,2,5,1,0,1210
0,76,1,1,15,4,6,4,2,5,1,0,991
0,77,1,1,16,4,5,4,2,5,1,0,1102
0,78,1,1,17,4,5,2,2,5,1,0,1083
0,79,1,1,18,4,6,1,2,5,1,0,1670
0,80,1,1,19,4,4,6,2,1,0,0,1896
0,81,1,1,20,4,5,1,2,5,1,0,379
0,82,1,1,21,4,4,1,2,5,1,0,934
0,83,1,1,22,4,4,4,2,5,1,0,1878
0,84,1,1,23,4,5,6,2,5,1,0,1042
0,85,1,1,24,4,1,5,2,1,1,0,1597
0,86,1,1,25,4,5,6,2,5,1,0,1490
0,87,1,1,26,4,3,5,2,5,0,0,2210
0,88,1,1,27,4,1,4,2,1,1,0,1437
0,89,1,1,28,4,1,5,2,1,1,0,824
0,90,1,1,29,4,4,3,2,5,1,0,1946
0,91,1,1,30,4,1,5,2,1,1,0,1573
0,92,1,1,31,4,3,2,2,5,0,0,5049
0,93,1,1,32,4,1,5,2,1,1,0,1552
0,94,1,1,33,4,3,4,2,1,1,0,2107
0,95,1,1,34,4,2,3,2,1,1,0,2270
0,96,1,1,35,4,4,2,2,1,0,0,1231
0,97,1,1,36,4,5,1,2,5,1,0,2330
0,98,1,1,37,4,1,1,2,1,1,0,1841
0,99,1,1,38,4,2,1,2,1,1,0,2045
0,100,1,1,39,4,1,2,2,1,1,0,1110
0,101,1,1,0,1,2,5,4,3,1,1,2118
0,102,1,1,1,1,5,1,4,2,0,0,1917
0,103,1,1,2,1,6,1,4,3,1,0,1089
0,104,1,1,3,1,5,1,4,3,1,0,1283
0,105,1,1,4,1,6,2,4,3,0,0,1094
0,106,1,1,5,1,5,2,4,2,1,0,2291
0,107,1,1,6,1,1,6,4,3,1,0,1797
0,108,1,1,7,1,2,5,4,3,0,0,964
0,109,1,1,8,1,4,2,4,2,0,0,8598
0,110,1,1,9,1,4,6,4,3,0,0,5004
0,111,1,1,10,1,2,1,4,3,0,0,8196
0,112,1,1,11,1,2,2,4,2,0,0,1979
0,113,1,1,0,4,3,6,2,5,0,1,3011
0,114,1,1,1,4,2,6,2,1,1,0,1198
0,115,1,1,2,4,6,4,2,5,1,0,2803
0,116,1,1,3,4,4,3,2,5,1,0,7011
0,117,1,1,4,4,4,2,2,5,1,0,1248
0,118,1,1,5,4,6,4,2,5,1,0,3926
0,119,1,1,6,4,1,6,2,1,1,0,1773
0,120,1,1,7,4,5,6,2,5,1,0,2211
0,121,1,1,8,4,6,4,2,5,1,0,1491
0,122,1,1,9,4,3,4,2,1,1,0,5681
0,123,1,1,10,4,5,5,2,5,1,0,1779
0,124,1,1,11,4,4,2,2,5,1,0,3973
0,125,1,1,12,4,1,1,2,1,1,0,1819
0,126,1,1,13,4,2,3,2,1,1,0,1677
0,127,1,1,0,3,5,4,3,6,0,1,2668
0,128,1,1,1,3,5,4,3,8,1,0,2000
0,129,1,1,2,3,6,1,3,8,1,0,1530
0,130,1,1,3,3,3,6,3,6,0,0,1547
0,131,1,1,4,3,5,6,3,8,1,0,1039
0,132,1,1,5,3,1,4,3,6,1,0,2413
0,133,1,1,6,3,5,5,3,8,1,0,2328
0,134,1,1,7,3,6,5,3,8,1,0,1271
0,135,1,1,8,3,6,6,3,8,1,0,1129
0,136,1,1,9,3,1,2,3,6,1,0,1705
0,137,1,1,10,3,6,6,3,8,1,0,1470
0,138,1,1,11,3,1,6,3,6,0,0,14017
0,139,1,1,12,3,1,1,3,8,0,0,1809
0,140,1,1,13,3,4,2,3,8,0,0,1463
0,141,1,1,14,3,1,6,3,8,1,0,1670
0,142,1,1,15,3,2,4,3,8,0,0,1421
0,143,1,1,16,3,5,4,3,8,1,0,1746
0,144,1,1,17,3,1,2,3,6,1,0,1635
0,145,1,1,18,3,3,1,3,8,0,0,1523
0,146,1,1,19,3,5,4,3,8,1,0,2135
0,147,1,1,20,3,4,5,3,8,1,0,1314
0,148,1,1,21,3,4,6,3,8,1,0,1599
0,149,1,1,22,3,3,4,3,8,0,0,1394
0,150,1,1,23,3,3,4,3,6,1,0,2115
0,151,1,1,24,3,3,5,3,8,1,0,3134
0,152,1,1,25,3,6,6,3,8,1,0,1626
0,153,1,1,26,3,1,3,3,6,1,0,2487
0,154,1,1,27,3,4,2,3,6,1,0,2339
0,155,1,1,0,4,6,2,2,5,1,1,1880
0,156,1,1,1,4,6,5,2,5,1,0,850
0,157,1,1,2,4,1,4,2,1,1,0,1658
0,158,1,1,3,4,1,6,2,1,1,0,2065
0,159,1,1,4,4,4,3,2,5,1,0,2230
0,160,1,1,5,4,3,1,2,1,1,0,1560
0,161,1,1,6,4,6,5,2,5,1,0,1606
0,162,1,1,7,4,2,6,2,1,1,0,1642
0,163,1,1,8,4,3,2,2,1,1,0,3426
0,164,1,1,9,4,2,6,2,1,1,0,1441
0,165,1,1,10,4,3,2,2,1,1,0,1226
0,166,1,1,11,4,4,6,2,1,0,0,1233
0,167,1,1,12,4,6,5,2,5,1,0,1103
0,168,1,1,13,4,6,3,2,5,1,0,837
0,169,1,1,14,4,6,5,2,5,1,0,673
0,170,1,1,15,4,4,6,2,5,1,0,755
0,171,1,1,16,4,6,5,2,5,1,0,909
0,172,1,1,17,4,5,5,2,5,1,0,1163
0,173,1,1,18,4,2,1,2,1,1,0,1269
0,174,1,1,0,1,4,3,4,2,1,1,3381
0,175,1,1,1,1,6,5,4,2,0,0,1480
0,176,1,1,2,1,6,3,4,3,1,0,2020
0,177,1,1,3,1,3,2,4,3,1,0,1556
0,178,1,1,4,1,2,1,4,3,0,0,1446
0,179,1,1,5,1,4,1,4,2,0,0,2661
0,180,1,1,6,1,4,2,4,3,1,0,2094
0,181,1,1,7,1,5,1,4,3,1,0,1602
0,182,1,1,8,1,3,3,4,3,0,0,1334
0,183,1,1,9,1,1,2,4,2,0,0,2197
0,184,1,1,10,1,2,1,4,2,0,0,1418
0,185,1,1,11,1,5,1,4,3,1,0,2598
0,186,1,1,12,1,6,1,4,3,0,0,1166
0,187,1,1,13,1,4,4,4,3,1,0,2019
0,188,1,1,14,1,4,5,4,3,0,0,1338
0,189,1,1,0,4,6,4,2,5,1,1,1268
0,190,1,1,1,4,3,2,2,1,1,0,1866
0,191,1,1,2,4,1,6,2,1,1,0,1352
0,192,1,1,3,4,6,1,2,5,1,0,1721
0,193,1,1,4,4,5,4,2,5,1,0,810
0,194,1,1,5,4,6,3,2,5,1,0,950
0,195,1,1,0,2,6,1,1,7,0,1,2075
0,196,1,1,1,2,3,1,1,7,0,0,1596
0,197,1,1,2,2,2,1,1,4,0,0,1109
0,198,1,1,3,2,3,1,1,7,0,0,1713
0,199,1,1,4,2,5,1,1,7,0,0,2276
0,200,1,1,5,2,1,1,1,4,0,0,2336
0,201,1,1,6,2,1,1,1,7,1,0,2092
0,202,1,1,7,2,6,1,1,4,1,0,1327
0,203,1,1,8,2,5,1,1,4,1,0,1039
0,204,1,1,9,2,2,1,1,7,1,0,2362
0,205,1,1,10,2,6,1,1,4,1,0,1369
0,206,1,1,11,2,5,1,1,4,1,0,1211
0,207,1,1,12,2,5,1,1,4,1,0,1157
0,208,1,1,13,2,1,1,1,7,1,0,2322
0,209,1,1,14,2,3,1,1,4,1,0,3545
0,210,1,1,15,2,2,1,1,4,0,0,1750
0,211,1,1,16,2,3,1,1,7,0,0,1567
0,212,1,1,17,2,1,1,1,7,1,0,2464
0,213,1,1,18,2,5,1,1,4,1,0,1652
0,214,1,1,19,2,3,1,1,7,0,0,1569
0,215,1,1,20,2,5,1,1,4,1,0,1506
0,216,1,1,21,2,1,1,1,7,1,0,1782
0,217,1,1,22,2,4,1,1,4,1,0,2033
0,218,1,1,23,2,2,1,1,4,0,0,2697
0,219,1,1,24,2,1,1,1,7,1,0,2802
0,220,1,1,25,2,5,1,1,4,1,0,2141
0,221,1,1,26,2,3,1,1,7,0,0,2540
0,222,1,1,27,2,2,1,1,7,1,0,1090
0,223,1,1,28,2,3,1,1,7,0,0,1051
0,224,1,1,29,2,5,1,1,4,1,0,1648
0,225,1,1,30,2,3,1,1,4,1,0,1045
0,226,1,1,31,2,4,1,1,4,1,0,1302
0,227,1,1,32,2,5,1,1,4,1,0,950
0,228,1,1,33,2,2,1,1,7,1,0,1932
0,229,1,1,34,2,6,1,1,4,1,0,2464
0,230,1,1,35,2,6,1,1,4,1,0,952
0,231,1,1,36,2,1,1,1,7,1,0,1713
0,232,1,1,37,2,3,1,1,7,0,0,6933
0,233,1,1,38,2,6,1,1,4,1,0,1632
0,234,1,1,39,2,5,1,1,4,1,0,885
0,235,1,1,40,2,5,1,1,4,1,0,1018
0,236,1,1,41,2,3,1,1,4,1,0,2519
0,237,1,1,42,2,2,1,1,4,0,0,1754
0,238,1,1,43,2,2,1,1,7,1,0,1595
0,239,1,1,44,2,1,1,1,7,1,0,921
0,240,1,1,45,2,5,1,1,4,1,0,1518
0,241,1,1,46,2,6,1,1,4,1,0,734
0,242,1,1,47,2,1,1,1,7,1,0,1386
0,243,1,1,48,2,3,1,1,7,0,0,922
0,244,1,1,49,2,3,1,1,4,1,0,1607
0,245,1,1,50,2,2,1,1,7,1,0,1537
0,246,1,1,51,2,3,1,1,4,1,0,1372
0,247,1,1,52,2,6,1,1,4,1,0,655
0,248,1,1,53,2,1,1,1,7,1,0,1324
0,249,1,1,54,2,2,1,1,7,1,0,1189
0,250,1,1,55,2,2,1,1,7,1,0,1008
0,251,1,1,56,2,3,1,1,4,1,0,1562
0,252,1,1,57,2,5,1,1,4,1,0,752
0,253,1,1,0,4,2,4,2,1,1,1,1941
0,254,1,1,1,4,2,3,2,1,1,0,977
0,255,1,1,2,4,4,6,2,5,1,0,1614
0,256,1,1,3,4,4,6,2,5,1,0,801
0,257,1,1,4,4,5,1,2,5,1,0,1263
0,258,1,1,5,4,3,3,2,5,0,0,2811
0,259,1,1,6,4,2,6,2,1,1,0,2084
0,260,1,1,7,4,6,6,2,5,1,0,2040
0,261,1,1,8,4,2,3,2,1,1,0,1277
0,262,1,1,0,3,1,1,3,6,1,1,1973
0,263,1,1,1,3,3,5,3,8,1,0,2354
0,264,1,1,2,3,2,4,3,6,1,0,2198
0,265,1,1,3,3,2,6,3,6,0,0,1556
0,266,1,1,4,3,1,1,3,6,1,0,3115
0,267,1,1,0,2,6,1,1,4,1,1,2119
0,268,1,1,1,2,5,1,1,4,1,0,1073
0,269,1,1,2,2,5,1,1,4,1,0,933
0,270,1,1,3,2,6,1,1,4,1,0,867
0,271,1,1,4,2,3,1,1,7,0,0,1831
0,272,1,1,5,2,4,1,1,7,0,0,2618
0,273,1,1,6,2,5,1,1,4,1,0,1681
0,274,1,1,0,4,4,2,2,5,1,1,1517
0,275,1,1,1,4,4,1,2,5,1,0,903
0,276,1,1,2,4,4,4,2,5,1,0,820
0,277,1,1,3,4,4,2,2,5,1,0,693
0,278,1,1,4,4,4,1,2,5,1,0,656
0,279,1,1,5,4,4,2,2,5,1,0,691
0,280,1,1,6,4,1,6,2,1,1,0,1680
0,281,1,1,7,4,2,2,2,1,1,0,1166
0,282,1,1,8,4,1,1,2,1,1,0,896
0,283,1,1,9,4,6,1,2,5,1,0,1618
0,284,1,1,10,4,3,4,2,1,1,0,1589
0,285,1,1,11,4,3,4,2,1,1,0,1434
0,286,1,1,12,4,4,4,2,1,0,0,767
0,287,1,1,13,4,6,3,2,5,1,0,1677
0,288,1,1,14,4,3,5,2,1,1,0,1556
0,289,1,1,15,4,2,1,2,1,1,0,998
0,290,1,1,16,4,2,1,2,1,1,0,1062
0,291,1,1,17,4,1,5,2,1,1,0,1335
0,292,1,1,18,4,4,3,2,5,1,0,1927
0,293,1,1,19,4,3,5,2,1,1,0,1946
0,294,1,1,20,4,2,4,2,1,1,0,1380
0,295,1,1,21,4,1,6,2,1,1,0,891
0,296,1,1,22,4,5,5,2,5,1,0,2167
0,297,1,1,23,4,6,5,2,5,1,0,732
0,298,1,1,24,4,2,4,2,1,1,0,2229
0,299,1,1,25,4,1,2,2,1,1,0,960
0,300,1,1,26,4,6,4,2,5,1,0,1813
0,301,1,1,27,4,1,5,2,1,1,0,1484
0,302,1,1,28,4,6,4,2,5,1,0,2164
0,303,1,1,29,4,1,6,2,1,1,0,1448
0,304,1,1,30,4,4,1,2,5,1,0,1615
0,305,1,1,31,4,2,5,2,1,1,0,1445
0,306,1,1,32,4,4,6,2,5,1,0,1737
0,307,1,1,33,4,1,3,2,1,1,0,1920
0,308,1,1,34,4,3,2,2,1,1,0,1962
0,309,1,1,35,4,1,1,2,1,1,0,1385
0,310,1,1,36,4,1,4,2,1,1,0,1029
0,311,1,2,0,4,6,5,2,5,1,1,1363
0,312,1,2,1,4,5,4,2,5,1,0,981
0,313,1,2,2,4,4,2,2,5,1,0,1244
0,314,1,2,3,4,4,6,2,5,1,0,815
0,315,1,2,4,4,3,6,2,1,1,0,1324
0,316,1,2,5,4,4,3,2,1,0,0,871
0,317,1,2,6,4,3,6,2,1,1,0,972
0,318,1,2,7,4,3,5,2,1,1,0,1079
0,319,1,2,8,4,2,3,2,1,1,0,1002
0,320,1,2,9,4,1,4,2,1,1,0,772
0,321,1,2,10,4,1,3,2,1,1,0,845
0,322,1,2,11,4,1,6,2,1,1,0,918
0,323,1,2,12,4,3,4,2,5,0,0,2508
0,324,1,2,13,4,6,4,2,5,1,0,868
0,325,1,2,14,4,1,1,2,1,1,0,1703
0,326,1,2,0,2,5,1,1,4,1,1,1714
0,327,1,2,1,2,4,1,1,4,1,0,1854
0,328,1,2,2,2,5,1,1,4,1,0,881
0,329,1,2,3,2,2,1,1,7,1,0,2368
0,330,1,2,4,2,3,1,1,4,1,0,2380
0,331,1,2,5,2,1,1,1,7,1,0,1705
0,332,1,2,6,2,1,1,1,7,1,0,903
0,333,1,2,7,2,4,1,1,4,1,0,1910
0,334,1,2,8,2,3,1,1,4,1,0,1649
0,335,1,2,9,2,6,1,1,4,1,0,1161
0,336,1,2,10,2,4,1,1,4,1,0,907
0,337,1,2,11,2,5,1,1,4,1,0,909
0,338,1,2,12,2,6,1,1,4,1,0,901
0,339,1,2,13,2,1,1,1,7,1,0,1539
0,340,1,2,14,2,6,1,1,4,1,0,1527
0,341,1,2,0,1,2,1,4,2,1,1,1935
0,342,1,2,1,1,5,1,4,3,1,0,2321
0,343,1,2,2,1,6,5,4,3,0,0,1655
0,344,1,2,3,1,5,2,4,3,0,0,1629
0,345,1,2,4,1,5,4,4,3,0,0,1719
0,346,1,2,5,1,3,5,4,3,1,0,1910
0,347,1,2,6,1,6,3,4,2,1,0,2120
0,348,1,2,7,1,1,1,4,3,0,0,1620
0,349,1,2,8,1,4,6,4,3,0,0,1364
0,350,1,2,9,1,4,1,4,3,1,0,2078
0,351,1,2,10,1,6,3,4,2,0,0,1654
0,352,1,2,11,1,3,2,4,2,0,0,1237
0,353,1,2,12,1,3,5,4,3,0,0,2186
0,354,1,2,13,1,2,5,4,3,0,0,1099
0,355,1,2,14,1,6,3,4,3,1,0,2314
0,356,1,2,0,3,6,2,3,8,1,1,2271
0,357,1,2,1,3,5,2,3,6,0,0,1750
0,358,1,2,2,3,6,1,3,6,0,0,3462
0,359,1,2,3,3,4,2,3,8,0,0,1197
0,360,1,2,4,3,5,5,3,8,1,0,1220
0,361,1,2,5,3,5,4,3,8,1,0,1272
0,362,1,2,6,3,4,3,3,6,1,0,2996
0,363,1,2,7,3,3,6,3,8,1,0,2685
0,364,1,2,8,3,2,6,3,8,1,0,3960
0,365,1,2,9,3,5,6,3,6,0,0,2277
0,366,1,2,10,3,1,1,3,6,1,0,1443
0,367,1,2,11,3,6,3,3,8,1,0,3173
0,368,1,2,12,3,4,5,3,8,1,0,2036
0,369,1,2,13,3,3,1,3,6,1,0,1828
0,370,1,2,14,3,4,5,3,8,1,0,1688
1,1,1,0,0,3,5,6,4,6,1,1,2949
1,2,1,0,1,3,4,5,4,6,0,0,1234
1,3,1,0,2,3,4,2,4,8,1,0,2358
1,4,1,0,3,3,3,1,4,8,1,0,972
1,5,1,0,4,3,2,5,4,8,0,0,706
1,6,1,0,5,3,1,4,4,6,1,0,3718
1,7,1,0,6,3,5,4,4,6,0,0,1375
1,8,1,0,7,3,5,2,4,8,0,0,2249
1,9,1,0,8,3,6,5,4,8,0,0,2713
1,10,1,0,9,3,3,3,4,8,0,0,1698
1,11,1,0,10,3,3,2,4,6,0,0,24834
1,12,1,0,11,3,5,3,4,6,0,0,2677
1,13,1,0,12,3,3,4,4,8,1,0,833
1,14,1,0,13,3,2,4,4,8,1,0,1170
1,15,1,0,14,3,4,2,4,6,0,0,1425
1,16,1,0,0,2,3,6,3,5,1,1,1150
1,17,1,0,1,2,4,3,3,5,0,0,897
1,18,1,0,2,2,2,6,3,5,1,0,1169
1,19,1,0,3,2,6,2,3,1,0,0,1071
1,20,1,0,4,2,3,2,3,5,0,0,893
1,21,1,0,5,2,5,5,3,5,1,0,1164
1,22,1,0,6,2,6,2,3,5,1,0,1302
1,23,1,0,7,2,6,6,3,5,1,0,1412
1,24,1,0,8,2,2,2,3,5,0,0,996
1,25,1,0,9,2,1,5,3,5,1,0,2212
1,26,1,0,10,2,1,3,3,1,1,0,2070
1,27,1,0,11,2,2,3,3,1,1,0,1174
1,28,1,0,12,2,6,6,3,5,1,0,1577
1,29,1,0,13,2,3,6,3,5,1,0,1399
1,30,1,0,14,2,2,1,3,1,1,0,1528
1,31,1,0,0,1,5,5,2,2,1,1,23245
1,32,1,0,1,1,5,1,2,2,1,0,1976
1,33,1,0,2,1,4,3,2,2,1,0,1138
1,34,1,0,3,1,4,4,2,2,1,0,886
1,35,1,0,4,1,2,3,2,2,0,0,1048
1,36,1,0,5,1,6,6,2,2,1,0,1144
1,37,1,0,6,1,2,2,2,3,1,0,1944
1,38,1,0,7,1,2,4,2,2,0,0,54725
1,39,1,0,8,1,4,5,2,2,1,0,1964
1,40,1,0,9,1,5,3,2,2,1,0,1701
1,41,1,0,10,1,1,6,2,2,0,0,2107
1,42,1,0,11,1,5,4,2,2,1,0,1475
1,43,1,0,12,1,6,5,2,2,1,0,1001
1,44,1,0,13,1,4,5,2,2,1,0,843
1,45,1,0,14,1,4,5,2,2,1,0,811
1,46,1,0,0,4,4,1,1,7,0,1,2897
1,47,1,0,1,4,3,1,1,4,1,0,2994
1,48,1,0,2,4,5,1,1,4,1,0,973
1,49,1,0,3,4,3,1,1,4,1,0,851
1,50,1,0,4,4,2,1,1,4,0,0,1059
1,51,1,0,5,4,1,1,1,7,1,0,1047
1,52,1,0,6,4,1,1,1,7,1,0,708
1,53,1,0,7,4,2,1,1,7,1,0,1173
1,54,1,0,8,4,5,1,1,4,1,0,734
1,55,1,0,9,4,5,1,1,4,1,0,685
1,56,1,0,10,4,5,1,1,4,1,0,692
1,57,1,0,11,4,1,1,1,7,1,0,1131
1,58,1,0,12,4,5,1,1,7,0,0,647
1,59,1,0,13,4,5,1,1,4,1,0,942
1,60,1,0,14,4,2,1,1,7,1,0,1454
1,61,1,1,0,3,4,6,4,8,0,1,5419
1,62,1,1,1,3,5,5,4,6,1,0,1677
1,63,1,1,2,3,4,6,4,6,1,0,910
1,64,1,1,3,3,1,1,4,8,0,0,2491
1,65,1,1,4,3,2,2,4,8,1,0,6336
1,66,1,1,5,3,3,3,4,8,1,0,956
1,67,1,1,6,3,6,1,4,8,0,0,814
1,68,1,1,7,3,6,4,4,6,0,0,2215
1,69,1,1,8,3,1,6,4,8,0,0,1064
1,70,1,1,9,3,2,2,4,8,0,0,2831
1,71,1,1,10,3,5,2,4,6,1,0,2365
1,72,1,1,11,3,5,1,4,6,0,0,1673
1,73,1,1,12,3,4,6,4,8,1,0,5914
1,74,1,1,13,3,3,6,4,8,0,0,998
1,75,1,1,14,3,1,6,4,6,1,0,2123
1,76,1,1,15,3,2,5,4,6,0,0,940
1,77,1,1,16,3,3,3,4,6,0,0,1552
1,78,1,1,17,3,6,6,4,6,0,0,1818
1,79,1,1,18,3,2,5,4,8,1,0,2260
1,80,1,1,19,3,4,5,4,8,0,0,1178
1,81,1,1,20,3,1,5,4,8,1,0,1287
1,82,1,1,21,3,1,2,4,8,0,0,919
1,83,1,1,22,3,4,3,4,8,0,0,36878
1,84,1,1,23,3,3,6,4,6,0,0,1740
1,85,1,1,24,3,5,2,4,6,0,0,8768
1,86,1,1,25,3,1,2,4,8,0,0,4184
1,87,1,1,26,3,4,5,4,6,0,0,6391
1,88,1,1,27,3,6,2,4,8,1,0,4372
1,89,1,1,28,3,6,2,4,8,1,0,781
1,90,1,1,29,3,3,6,4,8,1,0,3899
1,91,1,1,30,3,4,4,4,8,1,0,5257
1,92,1,1,31,3,4,5,4,8,0,0,988
1,93,1,1,32,3,4,5,4,8,0,0,1223
1,94,1,1,33,3,2,1,4,6,1,0,3488
1,95,1,1,34,3,5,1,4,6,0,0,1370
1,96,1,1,35,3,4,1,4,8,1,0,1511
1,97,1,1,0,1,6,6,2,2,1,1,1364
1,98,1,1,1,1,1,3,2,3,1,0,3931
1,99,1,1,2,1,2,6,2,3,1,0,1100
1,100,1,1,3,1,6,1,2,2,1,0,1242
1,101,1,1,4,1,2,4,2,3,1,0,2071
1,102,1,1,5,1,1,3,2,3,1,0,1587
1,103,1,1,6,1,2,2,2,3,1,0,2242
1,104,1,1,7,1,1,6,2,3,1,0,1220
1,105,1,1,8,1,4,4,2,2,1,0,1058
1,106,1,1,9,1,4,5,2,2,1,0,987
1,107,1,1,10,1,3,3,2,2,0,0,2585
1,108,1,1,11,1,5,3,2,2,1,0,1379
1,109,1,1,12,1,1,4,2,3,1,0,1162
1,110,1,1,13,1,2,4,2,3,1,0,885
1,111,1,1,14,1,2,2,2,3,1,0,939
1,112,1,1,15,1,3,4,2,3,1,0,883
1,113,1,1,16,1,5,5,2,2,1,0,1044
1,114,1,1,17,1,1,4,2,3,1,0,3516
1,115,1,1,18,1,1,2,2,3,1,0,1445
1,116,1,1,19,1,2,4,2,3,1,0,736
1,117,1,1,20,1,5,2,2,2,1,0,1273
1,118,1,1,21,1,5,3,2,2,1,0,1653
1,119,1,1,22,1,3,6,2,3,1,0,1701
1,120,1,1,23,1,2,2,2,3,1,0,2817
1,121,1,1,24,1,4,5,2,2,1,0,2773
1,122,1,1,0,2,2,4,3,5,0,1,17059
1,123,1,1,1,2,4,2,3,1,1,0,3133
1,124,1,1,2,2,5,1,3,1,0,0,3811
1,125,1,1,3,2,6,4,3,5,1,0,2510
1,126,1,1,4,2,5,3,3,5,1,0,1122
1,127,1,1,5,2,3,3,3,5,0,0,1225
1,128,1,1,6,2,6,2,3,1,0,0,2059
1,129,1,1,7,2,5,1,3,1,0,0,3075
1,130,1,1,8,2,2,1,3,5,0,0,1028
1,131,1,1,9,2,3,6,3,5,1,0,1133
1,132,1,1,10,2,2,6,3,5,1,0,1015
1,133,1,1,11,2,5,5,3,5,1,0,1311
1,134,1,1,12,2,4,4,3,5,0,0,1755
1,135,1,1,13,2,6,3,3,5,1,0,1768
1,136,1,1,14,2,5,1,3,5,1,0,1106
1,137,1,1,15,2,4,5,3,5,1,0,1009
1,138,1,1,16,2,6,4,3,1,0,0,1460
1,139,1,1,17,2,4,1,3,5,0,0,1335
1,140,1,1,18,2,6,1,3,1,0,0,1392
1,141,1,1,19,2,6,5,3,5,1,0,2510
1,142,1,1,20,2,3,4,3,5,0,0,1066
1,143,1,1,21,2,1,6,3,5,1,0,1231
1,144,1,1,22,2,3,2,3,5,0,0,2666
1,145,1,1,23,2,5,2,3,5,1,0,2431
1,146,1,1,24,2,4,6,3,5,1,0,2093
1,147,1,1,25,2,1,4,3,5,0,0,1346
1,148,1,1,26,2,5,2,3,1,0,0,2158
1,149,1,1,27,2,6,1,3,1,0,0,1943
1,150,1,1,28,2,1,6,3,5,1,0,1581
1,151,1,1,29,2,1,5,3,5,1,0,3010
1,152,1,1,30,2,2,2,3,5,0,0,2434
1,153,1,1,31,2,6,3,3,5,1,0,2672
1,154,1,1,32,2,5,4,3,5,1,0,2409
1,155,1,1,33,2,6,1,3,1,0,0,1332
1,156,1,1,34,2,3,5,3,5,1,0,1816
1,157,1,1,35,2,2,1,3,1,1,0,1983
1,158,1,1,36,2,1,4,3,5,0,0,1802
1,159,1,1,37,2,2,6,3,5,1,0,1192
1,160,1,1,38,2,4,2,3,1,1,0,8448
1,161,1,1,39,2,2,5,3,1,0,0,1933
1,162,1,1,40,2,1,1,3,1,1,0,1473
1,163,1,1,41,2,1,5,3,5,1,0,2003
1,164,1,1,42,2,1,3,3,1,1,0,2026
1,165,1,1,43,2,4,5,3,5,1,0,2052
1,166,1,1,44,2,4,2,3,1,1,0,6516
1,167,1,1,45,2,1,4,3,1,1,0,1596
1,168,1,1,46,2,5,3,3,5,1,0,1882
1,169,1,1,47,2,1,6,3,5,1,0,1206
1,170,1,1,48,2,6,2,3,1,0,0,3483
1,171,1,1,49,2,3,5,3,5,1,0,1056
1,172,1,1,50,2,6,6,3,5,1,0,794
1,173,1,1,51,2,6,4,3,1,0,0,1459
1,174,1,1,52,2,4,1,3,1,1,0,1144
1,175,1,1,53,2,5,6,3,5,1,0,1263
1,176,1,1,54,2,5,5,3,5,1,0,1195
1,177,1,1,55,2,5,3,3,1,0,0,1876
1,178,1,1,56,2,2,2,3,1,1,0,1204
1,179,1,1,57,2,3,6,3,5,1,0,1228
1,180,1,1,58,2,2,2,3,5,0,0,1129
1,181,1,1,59,2,6,4,3,5,1,0,1844
1,182,1,1,60,2,1,1,3,1,1,0,1418
1,183,1,1,61,2,4,5,3,5,1,0,1635
1,184,1,1,62,2,4,2,3,1,1,0,2140
1,185,1,1,63,2,5,5,3,5,1,0,1368
1,186,1,1,64,2,1,4,3,1,1,0,2720
1,187,1,1,65,2,1,5,3,5,1,0,979
1,188,1,1,66,2,4,4,3,1,1,0,1123
1,189,1,1,67,2,1,3,3,1,1,0,1205
1,190,1,1,68,2,3,6,3,5,1,0,1178
1,191,1,1,69,2,3,3,3,1,1,0,1808
1,192,1,1,70,2,5,4,3,1,0,0,3539
1,193,1,1,71,2,2,6,3,5,1,0,815
1,194,1,1,72,2,3,5,3,5,1,0,808
1,195,1,1,73,2,3,5,3,5,1,0,659
1,196,1,1,74,2,5,4,3,5,1,0,852
1,197,1,1,75,2,1,2,3,1,1,0,1327
1,198,1,1,76,2,6,2,3,1,0,0,3302
1,199,1,1,77,2,3,5,3,5,1,0,800
1,200,1,1,78,2,5,5,3,5,1,0,745
1,201,1,1,79,2,6,6,3,5,1,0,666
1,202,1,1,80,2,2,6,3,5,1,0,706
1,203,1,1,81,2,1,1,3,1,1,0,2352
1,204,1,1,82,2,6,1,3,1,0,0,914
1,205,1,1,83,2,5,4,3,5,1,0,1077
1,206,1,1,84,2,6,5,3,5,1,0,708
1,207,1,1,85,2,2,3,3,5,0,0,3219
1,208,1,1,86,2,4,4,3,1,1,0,1454
1,209,1,1,87,2,4,6,3,5,1,0,1427
1,210,1,1,88,2,1,3,3,5,0,0,1922
1,211,1,1,0,4,3,1,1,4,1,1,3586
1,212,1,1,1,4,3,1,1,4,1,0,601
1,213,1,1,2,4,6,1,1,4,1,0,1003
1,214,1,1,3,4,2,1,1,7,1,0,1387
1,215,1,1,4,4,1,1,1,7,1,0,633
1,216,1,1,5,4,4,1,1,4,1,0,7913
1,217,1,1,6,4,4,1,1,4,1,0,681
1,218,1,1,7,4,1,1,1,7,1,0,1073
1,219,1,1,8,4,4,1,1,4,1,0,1961
1,220,1,1,9,4,2,1,1,7,1,0,1458
1,221,1,1,10,4,2,1,1,7,1,0,577
1,222,1,1,11,4,2,1,1,7,1,0,692
1,223,1,1,12,4,5,1,1,4,1,0,1219
1,224,1,1,13,4,2,1,1,7,1,0,4873
1,225,1,1,14,4,1,1,1,7,1,0,738
1,226,1,1,15,4,5,1,1,4,1,0,843
1,227,1,1,16,4,5,1,1,4,1,0,567
1,228,1,1,17,4,5,1,1,4,1,0,704
1,229,1,1,18,4,2,1,1,7,1,0,1441
1,230,1,1,19,4,6,1,1,4,1,0,905
1,231,1,1,20,4,1,1,1,7,1,0,979
1,232,1,1,21,4,4,1,1,4,1,0,1146
1,233,1,1,22,4,3,1,1,4,1,0,6506
1,234,1,1,23,4,4,1,1,4,1,0,731
1,235,1,1,24,4,3,1,1,7,0,0,7266
1,236,1,1,25,4,6,1,1,4,1,0,1285
1,237,1,1,26,4,1,1,1,7,1,0,1120
1,238,1,1,27,4,3,1,1,4,1,0,2477
1,239,1,1,28,4,1,1,1,7,1,0,1041
1,240,1,1,29,4,2,1,1,7,1,0,1264
1,241,1,1,30,4,2,1,1,7,1,0,1498
1,242,1,1,31,4,4,1,1,4,1,0,1723
1,243,1,1,32,4,6,1,1,4,1,0,572
1,244,1,1,0,3,4,4,4,6,0,1,19771
1,245,1,1,1,3,1,2,4,6,1,0,3550
1,246,1,1,2,3,4,4,4,6,0,0,5762
1,247,1,1,3,3,3,1,4,6,0,0,1628
1,248,1,1,4,3,2,2,4,6,1,0,1693
1,249,1,1,5,3,2,4,4,6,1,0,1258
1,250,1,1,6,3,3,3,4,6,1,0,5872
1,251,1,1,7,3,1,2,4,6,0,0,1248
1,252,1,1,8,3,1,2,4,6,0,0,19685
1,253,1,1,9,3,3,5,4,8,1,0,18414
1,254,1,1,10,3,3,4,4,8,0,0,9793
1,255,1,1,11,3,1,2,4,6,0,0,10315
1,256,1,1,12,3,1,1,4,6,0,0,1310
1,257,1,1,13,3,3,1,4,6,0,0,2173
1,258,1,1,14,3,4,5,4,6,1,0,2557
1,259,1,1,15,3,1,1,4,8,1,0,6171
1,260,1,1,16,3,6,2,4,8,1,0,2610
1,261,1,1,17,3,6,4,4,6,1,0,5215
1,262,1,1,18,3,1,6,4,6,1,0,4858
1,263,1,1,19,3,4,6,4,8,0,0,7989
1,264,1,1,20,3,6,4,4,6,0,0,3966
1,265,1,1,21,3,6,3,4,6,0,0,5798
1,266,1,1,22,3,6,6,4,8,0,0,1932
1,267,1,1,23,3,6,2,4,8,0,0,2378
1,268,1,1,24,3,6,6,4,6,0,0,732
1,269,1,1,25,3,2,4,4,6,0,0,238
1,270,1,1,26,3,5,1,4,6,1,0,565
1,271,1,1,27,3,6,2,4,6,1,0,1376
1,272,1,1,28,3,3,3,4,6,0,0,3283
1,273,1,1,29,3,3,5,4,6,0,0,1485
1,274,1,1,30,3,1,3,4,6,0,0,1648
1,275,1,1,31,3,2,1,4,6,0,0,1509
1,276,1,1,32,3,2,4,4,6,0,0,1117
1,277,1,1,33,3,5,2,4,6,0,0,3006
1,278,1,1,34,3,5,3,4,8,1,0,1441
1,279,1,1,35,3,3,5,4,8,1,0,945
1,280,1,1,36,3,6,1,4,6,0,0,1927
1,281,1,1,37,3,6,3,4,8,0,0,2942
1,282,1,1,38,3,4,5,4,8,1,0,740
1,283,1,1,39,3,4,6,4,8,1,0,1501
1,284,1,1,40,3,6,4,4,8,1,0,1162
1,285,1,1,41,3,3,6,4,6,1,0,2577
1,286,1,1,42,3,3,6,4,6,0,0,1000
1,287,1,1,0,2,5,3,3,1,0,1,6899
1,288,1,1,1,2,6,2,3,1,0,0,1747
1,289,1,1,2,2,1,1,3,5,0,0,1473
1,290,1,1,3,2,4,2,3,5,0,0,1430
1,291,1,1,4,2,2,2,3,1,1,0,2005
1,292,1,1,5,2,5,6,3,5,1,0,1179
1,293,1,1,6,2,4,5,3,5,1,0,705
1,294,1,1,7,2,5,5,3,5,1,0,751
1,295,1,1,8,2,1,3,3,5,0,0,2378
1,296,1,1,9,2,5,1,3,1,0,0,1812
1,297,1,1,10,2,4,3,3,5,0,0,1270
1,298,1,1,11,2,2,4,3,5,0,0,1261
1,299,1,1,12,2,3,3,3,1,1,0,956
1,300,1,1,13,2,2,1,3,1,1,0,1128
1,301,1,1,14,2,1,1,3,1,1,0,801
1,302,1,1,15,2,4,2,3,1,1,0,890
1,303,1,1,16,2,5,5,3,5,1,0,1609
1,304,1,1,17,2,1,3,3,1,1,0,1291
1,305,1,1,18,2,3,4,3,5,0,0,1800
1,306,1,1,19,2,4,1,3,1,1,0,1199
1,307,1,1,20,2,5,4,3,1,0,0,1214
1,308,1,1,21,2,2,3,3,1,1,0,867
1,309,1,1,22,2,5,3,3,1,0,0,806
1,310,1,1,23,2,3,2,3,5,0,0,843
1,311,1,2,0,4,4,1,1,4,1,1,3240
1,312,1,2,1,4,5,1,1,4,1,0,897
1,313,1,2,2,4,1,1,1,7,1,0,1483
1,314,1,2,3,4,5,1,1,4,1,0,1346
1,315,1,2,4,4,4,1,1,4,1,0,874
1,316,1,2,5,4,3,1,1,4,1,0,1930
1,317,1,2,6,4,4,1,1,4,1,0,1158
1,318,1,2,7,4,3,1,1,4,1,0,1121
1,319,1,2,8,4,2,1,1,7,1,0,1527
1,320,1,2,9,4,5,1,1,4,1,0,1226
1,321,1,2,10,4,1,1,1,7,1,0,1000
1,322,1,2,11,4,3,1,1,4,1,0,1138
1,323,1,2,12,4,1,1,1,7,1,0,1415
1,324,1,2,13,4,5,1,1,4,1,0,1081
1,325,1,2,14,4,1,1,1,7,1,0,968
1,326,1,2,0,2,6,6,3,5,1,1,1301
1,327,1,2,1,2,2,3,3,1,1,0,1929
1,328,1,2,2,2,5,3,3,1,0,0,1578
1,329,1,2,3,2,3,6,3,5,1,0,1036
1,330,1,2,4,2,3,3,3,5,0,0,1305
1,331,1,2,5,2,4,1,3,5,0,0,2324
1,332,1,2,6,2,1,3,3,5,0,0,3020
1,333,1,2,7,2,4,6,3,5,1,0,1085
1,334,1,2,8,2,6,1,3,1,0,0,1432
1,335,1,2,9,2,2,6,3,5,1,0,925
1,336,1,2,10,2,3,5,3,5,1,0,745
1,337,1,2,11,2,4,3,3,5,0,0,857
1,338,1,2,12,2,2,3,3,1,1,0,1830
1,339,1,2,13,2,5,6,3,5,1,0,2163
1,340,1,2,14,2,4,2,3,1,1,0,3658
1,341,1,2,0,1,4,2,2,2,1,1,28495
1,342,1,2,1,1,1,4,2,3,1,0,1443
1,343,1,2,2,1,2,3,2,3,1,0,1569
1,344,1,2,3,1,1,4,2,3,1,0,935
1,345,1,2,4,1,2,1,2,2,0,0,2418
1,346,1,2,5,1,4,4,2,2,1,0,1318
1,347,1,2,6,1,5,3,2,2,1,0,809
1,348,1,2,7,1,5,4,2,2,1,0,727
1,349,1,2,8,1,6,6,2,2,1,0,874
1,350,1,2,9,1,3,1,2,3,1,0,2223
1,351,1,2,10,1,2,4,2,3,1,0,3136
1,352,1,2,11,1,6,3,2,2,1,0,1178
1,353,1,2,12,1,3,5,2,3,1,0,987
1,354,1,2,13,1,1,3,2,3,1,0,827
1,355,1,2,14,1,1,3,2,3,1,0,657
1,356,1,2,0,3,4,2,4,6,1,1,1840
1,357,1,2,1,3,4,5,4,8,0,0,1560
1,358,1,2,2,3,4,2,4,6,0,0,1558
1,359,1,2,3,3,4,5,4,6,0,0,507
1,360,1,2,4,3,4,6,4,6,0,0,211
1,361,1,2,5,3,3,3,4,6,1,0,515
1,362,1,2,6,3,4,4,4,8,1,0,890
1,363,1,2,7,3,6,1,4,8,1,0,549
1,364,1,2,8,3,5,1,4,8,0,0,703
1,365,1,2,9,3,6,4,4,8,1,0,397
1,366,1,2,10,3,3,5,4,8,1,0,368
1,367,1,2,11,3,1,3,4,8,0,0,298
1,368,1,2,12,3,6,5,4,8,1,0,156
1,369,1,2,13,3,1,3,4,8,0,0,337
1,370,1,2,14,3,1,6,4,8,0,0,164
2,1,0,0,0,3,6,3,2,7,0,1,2987
2,2,0,0,1,3,2,2,2,4,0,0,2220
2,3,0,0,2,3,5,2,2,7,0,0,7024
2,4,0,0,3,3,2,6,2,7,1,0,3137
2,5,0,0,4,3,5,2,2,4,1,0,1839
2,6,0,0,5,3,5,2,2,4,1,0,1428
2,7,0,0,6,3,3,5,2,7,1,0,1178
2,8,0,0,7,3,1,3,2,7,1,0,1498
2,9,0,0,8,3,4,3,2,7,0,0,1861
2,10,0,0,9,3,3,6,2,7,1,0,1220
2,11,0,0,10,3,1,1,2,4,0,0,1607
2,12,0,0,11,3,5,6,2,7,0,0,1634
2,13,0,0,12,3,4,3,2,4,1,0,3214
2,14,0,0,13,3,6,5,2,7,0,0,2575
2,15,0,0,14,3,3,5,2,7,1,0,2077
2,16,0,0,0,1,1,6,3,6,0,1,2828
2,17,0,0,1,1,6,5,3,6,0,0,1627
2,18,0,0,2,1,5,4,3,8,1,0,1530
2,19,0,0,3,1,3,2,3,6,1,0,2041
2,20,0,0,4,1,5,5,3,8,1,0,1658
2,21,0,0,5,1,4,4,3,8,0,0,1508
2,22,0,0,6,1,6,2,3,8,1,0,1392
2,23,0,0,7,1,1,3,3,6,1,0,1426
2,24,0,0,8,1,3,2,3,6,1,0,1518
2,25,0,0,9,1,6,4,3,8,1,0,1472
2,26,0,0,10,1,1,1,3,6,1,0,1408
2,27,0,0,11,1,5,2,3,8,1,0,1481
2,28,0,0,12,1,5,5,3,8,1,0,1536
2,29,0,0,13,1,5,6,3,8,1,0,1510
2,30,0,0,14,1,1,6,3,6,0,0,1239
2,31,0,0,0,4,6,1,1,3,0,1,3198
2,32,0,0,1,4,6,1,1,2,1,0,1484
2,33,0,0,2,4,3,1,1,3,0,0,1693
2,34,0,0,3,4,2,1,1,2,0,0,1277
2,35,0,0,4,4,5,1,1,2,1,0,1523
2,36,0,0,5,4,2,1,1,2,0,0,3156
2,37,0,0,6,4,6,1,1,2,1,0,1171
2,38,0,0,7,4,6,1,1,2,1,0,1498
2,39,0,0,8,4,6,1,1,2,1,0,1333
2,40,0,0,9,4,1,1,1,3,1,0,1515
2,41,0,0,10,4,4,1,1,3,0,0,1451
2,42,0,0,11,4,6,1,1,2,1,0,1647
2,43,0,0,12,4,6,1,1,2,1,0,1149
2,44,0,0,13,4,3,1,1,3,0,0,3543
2,45,0,0,14,4,4,1,1,2,1,0,2878
2,46,0,0,0,2,4,1,4,5,1,1,1942
2,47,0,0,1,2,1,5,4,1,1,0,1552
2,48,0,0,2,2,1,2,4,5,0,0,1529
2,49,0,0,3,2,4,5,4,1,0,0,1331
2,50,0,0,4,2,2,2,4,5,0,0,1809
2,51,0,0,5,2,5,1,4,5,1,0,1456
2,52,0,0,6,2,1,3,4,1,0,0,1383
2,53,0,0,7,2,1,5,4,1,1,0,1332
2,54,0,0,8,2,3,4,4,5,0,0,1514
2,55,0,0,9,2,6,2,4,1,1,0,1700
2,56,0,0,10,2,2,5,4,5,1,0,1621
2,57,0,0,11,2,5,1,4,1,1,0,1675
2,58,0,0,12,2,3,4,4,5,1,0,1463
2,59,0,0,13,2,3,4,4,5,0,0,1518
2,60,0,0,14,2,3,3,4,1,0,0,2067
2,61,0,1,0,3,4,6,2,7,0,1,4406
2,62,0,1,1,3,5,5,2,4,1,0,2504
2,63,0,1,2,3,4,1,2,7,0,0,1737
2,64,0,1,3,3,3,2,2,4,0,0,1612
2,65,0,1,4,3,3,1,2,7,1,0,2316
2,66,0,1,5,3,3,2,2,7,1,0,3213
2,67,0,1,6,3,2,6,2,7,1,0,1985
2,68,0,1,7,3,2,6,2,7,1,0,1334
2,69,0,1,8,3,2,3,2,7,1,0,1482
2,70,0,1,9,3,2,5,2,7,1,0,2812
2,71,0,1,10,3,4,2,2,4,1,0,2447
2,72,0,1,11,3,5,2,2,4,1,0,1862
2,73,0,1,12,3,6,6,2,7,0,0,2325
2,74,0,1,13,3,3,4,2,4,0,0,5397
2,75,0,1,14,3,3,1,2,7,1,0,4842
2,76,0,1,15,3,3,1,2,7,1,0,2346
2,77,0,1,16,3,6,1,2,4,1,0,3091
2,78,0,1,17,3,3,3,2,4,0,0,2012
2,79,0,1,18,3,1,2,2,4,0,0,2376
2,80,0,1,19,3,6,4,2,7,0,0,1424
2,81,0,1,20,3,5,4,2,7,0,0,1073
2,82,0,1,21,3,2,5,2,7,1,0,1331
2,83,0,1,22,3,3,4,2,7,1,0,1646
2,84,0,1,23,3,2,6,2,7,1,0,2539
2,85,0,1,24,3,3,4,2,4,0,0,2597
2,86,0,1,25,3,3,6,2,7,1,0,1766
2,87,0,1,26,3,1,1,2,7,1,0,2640
2,88,0,1,27,3,5,4,2,7,0,0,1785
2,89,0,1,28,3,3,1,2,4,0,0,1575
2,90,0,1,29,3,6,1,2,4,1,0,1600
2,91,0,1,0,4,1,1,1,2,0,1,3364
2,92,0,1,1,4,4,1,1,2,1,0,1742
2,93,0,1,2,4,5,1,1,2,1,0,1415
2,94,0,1,3,4,1,1,1,3,1,0,1586
2,95,0,1,4,4,4,1,1,2,1,0,1708
2,96,0,1,5,4,3,1,1,3,0,0,2060
2,97,0,1,6,4,4,1,1,2,1,0,1267
2,98,0,1,7,4,2,1,1,2,0,0,1643
2,99,0,1,8,4,6,1,1,2,1,0,1189
2,100,0,1,9,4,5,1,1,2,1,0,1667
2,101,0,1,10,4,2,1,1,3,1,0,1622
2,102,0,1,11,4,6,1,1,2,1,0,1546
2,103,0,1,12,4,2,1,1,3,1,0,1603
2,104,0,1,13,4,6,1,1,2,1,0,1480
2,105,0,1,14,4,2,1,1,3,1,0,3254
2,106,0,1,15,4,5,1,1,2,1,0,1599
2,107,0,1,16,4,1,1,1,3,1,0,1381
2,108,0,1,17,4,5,1,1,2,1,0,1227
2,109,0,1,0,1,4,2,3,8,0,1,2196
2,110,0,1,1,1,1,2,3,8,0,0,2657
2,111,0,1,2,1,4,6,3,6,0,0,2550
2,112,0,1,3,1,1,3,3,6,1,0,1470
2,113,0,1,4,1,5,3,3,8,1,0,1412
2,114,0,1,5,1,5,6,3,8,1,0,1156
2,115,0,1,6,1,3,6,3,6,0,0,1746
2,116,0,1,7,1,3,1,3,8,0,0,2332
2,117,0,1,8,1,3,1,3,6,1,0,3817
2,118,0,1,9,1,6,6,3,8,1,0,2114
2,119,0,1,10,1,5,5,3,8,1,0,1283
2,120,0,1,11,1,3,4,3,6,1,0,1610
2,121,0,1,12,1,2,4,3,6,1,0,1097
2,122,0,1,13,1,1,3,3,6,1,0,1099
2,123,0,1,14,1,6,2,3,8,1,0,1512
2,124,0,1,15,1,1,6,3,6,0,0,1457
2,125,0,1,16,1,2,1,3,6,1,0,2881
2,126,0,1,17,1,5,2,3,8,1,0,5267
2,127,0,1,18,1,5,4,3,8,1,0,1202
2,128,0,1,19,1,6,1,3,8,1,0,1685
2,129,0,1,20,1,1,2,3,6,1,0,1357
2,130,0,1,21,1,5,1,3,8,1,0,2197
2,131,0,1,22,1,2,4,3,6,1,0,1309
2,132,0,1,23,1,3,3,3,8,0,0,2226
2,133,0,1,24,1,6,4,3,8,1,0,1047
2,134,0,1,25,1,1,3,3,6,1,0,1167
2,135,0,1,0,3,1,4,2,7,1,1,3445
2,136,0,1,1,3,5,3,2,4,1,0,1473
2,137,0,1,2,3,1,2,2,4,0,0,1827
2,138,0,1,3,3,3,1,2,4,0,0,1643
2,139,0,1,4,3,4,3,2,7,0,0,1853
2,140,0,1,5,3,6,1,2,7,0,0,5108
2,141,0,1,6,3,4,1,2,4,1,0,1727
2,142,0,1,7,3,3,6,2,7,1,0,1903
2,143,0,1,8,3,2,4,2,4,0,0,2497
2,144,0,1,9,3,2,2,2,4,0,0,1311
2,145,0,1,10,3,5,5,2,7,0,0,1469
2,146,0,1,11,3,4,4,2,7,0,0,2031
2,147,0,1,12,3,4,3,2,4,1,0,3041
2,148,0,1,13,3,4,2,2,4,1,0,1613
2,149,0,1,14,3,3,1,2,4,0,0,1327
2,150,0,1,15,3,6,2,2,7,0,0,2562
2,151,0,1,16,3,5,2,2,4,1,0,1857
2,152,0,1,17,3,5,6,2,7,0,0,1751
2,153,0,1,18,3,6,1,2,4,1,0,1727
2,154,0,1,19,3,5,4,2,4,1,0,2500
2,155,0,1,20,3,2,5,2,7,1,0,3415
2,156,0,1,21,3,5,3,2,4,1,0,1574
2,157,0,1,22,3,4,1,2,4,1,0,1154
2,158,0,1,23,3,5,3,2,4,1,0,1061
2,159,0,1,24,3,6,1,2,4,1,0,1043
2,160,0,1,25,3,4,2,2,4,1,0,1190
2,161,0,1,26,3,3,6,2,7,1,0,1837
2,162,0,1,27,3,3,4,2,4,0,0,1686
2,163,0,1,28,3,5,3,2,7,0,0,1222
2,164,0,1,29,3,6,4,2,7,0,0,1138
2,165,0,1,30,3,4,5,2,7,0,0,1809
2,166,0,1,31,3,4,2,2,4,1,0,4263
2,167,0,1,32,3,6,4,2,4,1,0,2133
2,168,0,1,33,3,1,6,2,7,1,0,2124
2,169,0,1,34,3,6,5,2,4,1,0,3274
2,170,0,1,35,3,4,6,2,4,1,0,2939
2,171,0,1,36,3,5,5,2,4,1,0,1510
2,172,0,1,37,3,6,4,2,4,1,0,1843
2,173,0,1,38,3,1,6,2,7,1,0,2237
2,174,0,1,39,3,6,6,2,4,1,0,1758
2,175,0,1,40,3,4,5,2,4,1,0,2062
2,176,0,1,41,3,5,6,2,4,1,0,1703
2,177,0,1,42,3,4,5,2,4,1,0,1357
2,178,0,1,43,3,3,1,2,4,0,0,3613
2,179,0,1,44,3,6,5,2,4,1,0,1500
2,180,0,1,45,3,5,3,2,4,1,0,3473
2,181,0,1,46,3,2,3,2,7,1,0,2159
2,182,0,1,47,3,5,2,2,4,1,0,2081
2,183,0,1,48,3,6,1,2,4,1,0,1478
2,184,0,1,49,3,4,3,2,7,0,0,4187
2,185,0,1,0,2,2,3,4,5,1,1,2374
2,186,0,1,1,2,1,3,4,5,0,0,1174
2,187,0,1,2,2,3,1,4,1,1,0,2534
2,188,0,1,3,2,2,6,4,1,1,0,1482
2,189,0,1,4,2,3,3,4,5,1,0,1995
2,190,0,1,5,2,6,5,4,1,1,0,1517
2,191,0,1,6,2,3,1,4,1,0,0,1721
2,192,0,1,7,2,1,3,4,5,1,0,2311
2,193,0,1,8,2,2,5,4,1,0,0,1397
2,194,0,1,9,2,4,4,4,1,0,0,3399
2,195,0,1,10,2,4,5,4,5,0,0,1676
2,196,0,1,11,2,1,2,4,5,0,0,2860
2,197,0,1,12,2,6,6,4,1,1,0,974
2,198,0,1,13,2,5,6,4,1,1,0,985
2,199,0,1,14,2,3,5,4,1,0,0,1744
2,200,0,1,15,2,3,1,4,5,1,0,1796
2,201,0,1,16,2,2,6,4,1,1,0,1411
2,202,0,1,17,2,6,2,4,5,1,0,1711
2,203,0,1,18,2,6,3,4,5,1,0,1209
2,204,0,1,19,2,2,4,4,5,1,0,2535
2,205,0,1,20,2,1,4,4,5,0,0,1480
2,206,0,1,21,2,1,6,4,1,0,0,1191
2,207,0,1,22,2,2,5,4,1,1,0,1269
2,208,0,1,23,2,1,1,4,5,0,0,1852
2,209,0,1,24,2,1,1,4,5,0,0,1326
2,210,0,1,25,2,4,2,4,5,0,0,1136
2,211,0,1,26,2,2,5,4,1,0,0,4163
2,212,0,1,27,2,5,1,4,5,0,0,1620
2,213,0,1,28,2,2,3,4,1,1,0,6196
2,214,0,1,29,2,6,4,4,5,1,0,1465
2,215,0,1,30,2,5,2,4,5,0,0,1060
2,216,0,1,31,2,3,6,4,1,1,0,2669
2,217,0,1,32,2,3,2,4,1,1,0,1331
2,218,0,1,33,2,1,2,4,5,0,0,2202
2,219,0,1,34,2,3,1,4,1,0,0,1907
2,220,0,1,35,2,1,3,4,1,0,0,1164
2,221,0,1,36,2,2,4,4,5,0,0,1783
2,222,0,1,37,2,1,1,4,1,0,0,1662
2,223,0,1,38,2,5,2,4,1,0,0,3449
2,224,0,1,39,2,6,6,4,5,0,0,2092
2,225,0,1,40,2,6,2,4,1,0,0,1359
2,226,0,1,41,2,4,5,4,1,1,0,1221
2,227,0,1,42,2,1,4,4,1,1,0,2053
2,228,0,1,43,2,2,4,4,1,0,0,1058
2,229,0,1,44,2,3,6,4,5,0,0,2883
2,230,0,1,45,2,1,4,4,1,0,0,2166
2,231,0,1,46,2,3,5,4,5,1,0,12212
2,232,0,1,47,2,6,1,4,5,1,0,2870
2,233,0,1,48,2,4,5,4,5,0,0,4349
2,234,0,1,49,2,2,6,4,5,1,0,1367
2,235,0,1,50,2,3,6,4,5,0,0,1599
2,236,0,1,51,2,1,4,4,5,0,0,1179
2,237,0,1,52,2,5,4,4,5,0,0,1208
2,238,0,1,53,2,6,4,4,1,0,0,1434
2,239,0,1,54,2,2,6,4,1,0,0,8294
2,240,0,1,55,2,4,3,4,5,0,0,1814
2,241,0,1,56,2,3,3,4,5,0,0,1357
2,242,0,1,57,2,1,1,4,5,0,0,838
2,243,0,1,58,2,2,3,4,5,1,0,734
2,244,0,1,59,2,4,4,4,5,0,0,1303
2,245,0,1,60,2,2,6,4,1,0,0,1678
2,246,0,1,61,2,3,2,4,1,0,0,1519
2,247,0,1,62,2,4,4,4,1,1,0,663
2,248,0,1,63,2,4,1,4,1,0,0,3442
2,249,0,1,64,2,6,2,4,5,1,0,1668
2,250,0,1,65,2,4,5,4,1,1,0,2489
2,251,0,1,66,2,1,5,4,1,0,0,1811
2,252,0,1,67,2,3,2,4,1,1,0,2285
2,253,0,1,68,2,2,1,4,1,1,0,1669
2,254,0,1,69,2,5,2,4,1,1,0,1547
2,255,0,1,70,2,1,3,4,5,0,0,1616
2,256,0,1,71,2,5,3,4,5,0,0,1211
2,257,0,1,72,2,5,3,4,1,1,0,1397
2,258,0,1,73,2,5,1,4,1,0,0,1394
2,259,0,1,74,2,3,3,4,1,1,0,1489
2,260,0,1,75,2,3,1,4,5,1,0,8785
2,261,0,1,76,2,6,1,4,5,1,0,1630
2,262,0,1,77,2,6,5,4,5,1,0,1326
2,263,0,1,78,2,3,1,4,1,1,0,2137
2,264,0,1,79,2,3,3,4,1,0,0,3143
2,265,0,1,80,2,4,2,4,1,0,0,1616
2,266,0,1,81,2,6,1,4,5,1,0,1506
2,267,0,1,82,2,6,3,4,5,0,0,1232
2,268,0,1,83,2,4,1,4,5,0,0,1575
2,269,0,1,84,2,5,3,4,1,1,0,2038
2,270,0,1,85,2,3,4,4,1,1,0,2246
2,271,0,1,86,2,2,2,4,1,1,0,1844
2,272,0,1,87,2,4,1,4,1,0,0,3431
2,273,0,1,88,2,1,5,4,5,1,0,1509
2,274,0,1,89,2,1,3,4,5,0,0,1267
2,275,0,1,90,2,5,4,4,5,0,0,1476
2,276,0,1,91,2,2,4,4,5,1,0,1288
2,277,0,1,92,2,5,6,4,1,1,0,1983
2,278,0,1,93,2,5,3,4,1,0,0,1777
2,279,0,1,94,2,5,1,4,5,1,0,1974
2,280,0,1,95,2,6,2,4,5,0,0,1029
2,281,0,1,0,1,5,1,3,8,1,1,2135
2,282,0,1,1,1,1,1,3,6,1,0,1756
2,283,0,1,2,1,6,3,3,8,1,0,1264
2,284,0,1,3,1,1,3,3,6,1,0,1436
2,285,0,1,4,1,5,3,3,8,1,0,1406
2,286,0,1,5,1,6,3,3,8,1,0,864
2,287,0,1,6,1,2,1,3,6,1,0,1523
2,288,0,1,7,1,4,5,3,8,1,0,1880
2,289,0,1,8,1,2,5,3,6,0,0,1072
2,290,0,1,9,1,2,5,3,8,1,0,1194
2,291,0,1,10,1,3,4,3,8,0,0,1300
2,292,0,1,11,1,5,5,3,8,1,0,947
2,293,0,1,12,1,5,3,3,8,1,0,1141
2,294,0,1,13,1,6,3,3,8,1,0,2109
2,295,0,1,14,1,1,4,3,6,1,0,1428
2,296,0,1,15,1,1,3,3,6,1,0,1012
2,297,0,1,16,1,1,3,3,6,1,0,983
2,298,0,1,17,1,2,5,3,6,0,0,1065
2,299,0,1,18,1,4,5,3,8,1,0,2373
2,300,0,1,19,1,5,6,3,8,1,0,1340
2,301,0,1,0,3,3,5,2,7,1,1,2211
2,302,0,1,1,3,4,3,2,4,1,0,3358
2,303,0,1,2,3,1,5,2,7,1,0,1577
2,304,0,1,3,3,2,1,2,7,1,0,1915
2,305,0,1,4,3,5,5,2,4,1,0,1999
2,306,0,1,5,3,3,5,2,7,1,0,2024
2,307,0,1,6,3,5,2,2,4,1,0,1384
2,308,0,1,7,3,1,5,2,7,1,0,1632
2,309,0,1,8,3,5,5,2,7,0,0,2688
2,310,0,1,9,3,1,6,2,7,1,0,979
2,311,0,2,0,4,6,1,1,2,1,1,2011
2,312,0,2,1,4,4,1,1,2,1,0,1637
2,313,0,2,2,4,2,1,1,3,1,0,1516
2,314,0,2,3,4,2,1,1,3,1,0,1011
2,315,0,2,4,4,4,1,1,2,1,0,1392
2,316,0,2,5,4,6,1,1,2,1,0,921
2,317,0,2,6,4,6,1,1,2,1,0,1412
2,318,0,2,7,4,5,1,1,2,1,0,1128
2,319,0,2,8,4,1,1,1,3,1,0,1181
2,320,0,2,9,4,2,1,1,3,1,0,913
2,321,0,2,10,4,3,1,1,2,1,0,1675
2,322,0,2,11,4,3,1,1,3,0,0,1987
2,323,0,2,12,4,5,1,1,2,1,0,1165
2,324,0,2,13,4,4,1,1,2,1,0,1105
2,325,0,2,14,4,5,1,1,2,1,0,831
2,326,0,2,0,3,5,4,2,4,1,1,2183
2,327,0,2,1,3,1,2,2,7,1,0,1588
2,328,0,2,2,3,1,5,2,7,1,0,1166
2,329,0,2,3,3,5,5,2,4,1,0,1844
2,330,0,2,4,3,4,1,2,4,1,0,1483
2,331,0,2,5,3,2,1,2,7,1,0,1303
2,332,0,2,6,3,5,5,2,4,1,0,1616
2,333,0,2,7,3,1,5,2,7,1,0,1255
2,334,0,2,8,3,1,2,2,7,1,0,1278
2,335,0,2,9,3,4,6,2,4,1,0,2271
2,336,0,2,10,3,3,2,2,7,1,0,1900
2,337,0,2,11,3,3,2,2,7,1,0,1770
2,338,0,2,12,3,5,3,2,4,1,0,1510
2,339,0,2,13,3,2,2,2,7,1,0,2482
2,340,0,2,14,3,1,5,2,7,1,0,912
2,341,0,2,0,1,1,1,3,8,0,1,1439
2,342,0,2,1,1,4,5,3,8,1,0,1281
2,343,0,2,2,1,5,3,3,8,1,0,968
2,344,0,2,3,1,6,6,3,8,1,0,917
2,345,0,2,4,1,6,3,3,8,1,0,927
2,346,0,2,5,1,3,6,3,8,1,0,1370
2,347,0,2,6,1,5,5,3,8,1,0,1102
2,348,0,2,7,1,5,1,3,6,0,0,1499
2,349,0,2,8,1,6,1,3,6,0,0,861
2,350,0,2,9,1,5,3,3,8,1,0,1398
2,351,0,2,10,1,5,4,3,8,1,0,1161
2,352,0,2,11,1,1,1,3,6,1,0,1619
2,353,0,2,12,1,6,2,3,8,1,0,1889
2,354,0,2,13,1,2,1,3,6,1,0,1413
2,355,0,2,14,1,2,2,3,6,1,0,1015
2,356,0,2,0,2,3,1,4,1,1,1,2759
2,357,0,2,1,2,5,5,4,1,0,0,1161
2,358,0,2,2,2,2,3,4,1,1,0,1686
2,359,0,2,3,2,2,1,4,1,1,0,2816
2,360,0,2,4,2,6,3,4,1,1,0,1263
2,361,0,2,5,2,5,4,4,1,1,0,1078
2,362,0,2,6,2,1,5,4,5,1,0,1807
2,363,0,2,7,2,2,3,4,5,1,0,1336
2,364,0,2,8,2,5,5,4,1,0,0,1427
2,365,0,2,9,2,2,6,4,1,1,0,1061
2,366,0,2,10,2,1,6,4,1,1,0,1145
2,367,0,2,11,2,2,6,4,1,1,0,1342
2,368,0,2,12,2,1,3,4,5,1,0,1721
2,369,0,2,13,2,1,4,4,5,1,0,1056
2,370,0,2,14,2,5,6,4,1,0,0,1693
3,1,1,0,0,3,3,3,2,7,1,1,2870
3,2,1,0,1,3,2,6,2,7,1,0,1325
3,3,1,0,2,3,2,2,2,7,1,0,1423
3,4,1,0,3,3,1,6,2,7,1,0,1197
3,5,1,0,4,3,1,6,2,7,1,0,1331
3,6,1,0,5,3,3,5,2,7,1,0,870
3,7,1,0,6,3,2,2,2,7,1,0,938
3,8,1,0,7,3,5,2,2,7,0,0,676
3,9,1,0,8,3,5,4,2,7,0,0,1915
3,10,1,0,9,3,5,3,2,4,1,0,1198
3,11,1,0,10,3,2,5,2,4,0,0,1160
3,12,1,0,11,3,3,5,2,7,1,0,221
3,13,1,0,12,3,2,4,2,7,1,0,862
3,14,1,0,13,3,5,2,2,4,1,0,720
3,15,1,0,14,3,6,3,2,4,1,0,1099
3,16,1,0,0,2,6,1,1,1,0,1,2191
3,17,1,0,1,2,5,1,1,5,1,0,1001
3,18,1,0,2,2,1,1,1,1,1,0,1564
3,19,1,0,3,2,1,1,1,1,1,0,893
3,20,1,0,4,2,5,1,1,5,1,0,742
3,21,1,0,5,2,4,1,1,5,1,0,2273
3,22,1,0,6,2,1,1,1,1,1,0,887
3,23,1,0,7,2,6,1,1,5,1,0,909
3,24,1,0,8,2,2,1,1,1,1,0,1042
3,25,1,0,9,2,1,1,1,1,1,0,752
3,26,1,0,10,2,5,1,1,5,1,0,815
3,27,1,0,11,2,2,1,1,1,1,0,768
3,28,1,0,12,2,3,1,1,1,0,0,806
3,29,1,0,13,2,6,1,1,1,0,0,683
3,30,1,0,14,2,4,1,1,5,1,0,854
3,31,1,0,0,1,6,2,3,2,1,1,2081
3,32,1,0,1,1,6,2,3,2,1,0,902
3,33,1,0,2,1,2,1,3,3,1,0,910
3,34,1,0,3,1,4,3,3,3,1,0,811
3,35,1,0,4,1,5,6,3,3,0,0,1010
3,36,1,0,5,1,1,4,3,3,1,0,964
3,37,1,0,6,1,6,5,3,2,1,0,946
3,38,1,0,7,1,5,3,3,2,1,0,900
3,39,1,0,8,1,3,2,3,3,1,0,1321
3,40,1,0,9,1,5,4,3,2,1,0,918
3,41,1,0,10,1,4,4,3,3,1,0,915
3,42,1,0,11,1,1,3,3,3,1,0,816
3,43,1,0,12,1,5,3,3,2,1,0,906
3,44,1,0,13,1,3,1,3,3,1,0,856
3,45,1,0,14,1,6,3,3,2,1,0,1012
3,46,1,0,0,4,2,3,4,8,1,1,1724
3,47,1,0,1,4,3,3,4,6,0,0,1086
3,48,1,0,2,4,2,3,4,8,0,0,378
3,49,1,0,3,4,4,4,4,8,1,0,2220
3,50,1,0,4,4,2,4,4,6,0,0,1010
3,51,1,0,5,4,6,3,4,6,0,0,1197
3,52,1,0,6,4,2,6,4,6,0,0,2501
3,53,1,0,7,4,6,6,4,8,0,0,1285
3,54,1,0,8,4,5,4,4,8,0,0,3312
3,55,1,0,9,4,2,5,4,8,1,0,1471
3,56,1,0,10,4,4,1,4,6,0,0,1556
3,57,1,0,11,4,4,3,4,8,1,0,1212
3,58,1,0,12,4,1,4,4,6,0,0,1409
3,59,1,0,13,4,1,1,4,6,1,0,1230
3,60,1,0,14,4,6,5,4,8,1,0,1017
3,61,1,1,0,4,2,6,4,8,1,1,3009
3,62,1,1,1,4,5,4,4,6,0,0,1278
3,63,1,1,2,4,3,1,4,6,1,0,1257
3,64,1,1,3,4,3,3,4,8,1,0,1260
3,65,1,1,4,4,4,4,4,8,1,0,947
3,66,1,1,5,4,5,2,4,6,1,0,1407
3,67,1,1,6,4,2,3,4,8,0,0,972
3,68,1,1,7,4,3,1,4,6,0,0,1339
3,69,1,1,8,4,4,2,4,8,0,0,1361
3,70,1,1,9,4,2,2,4,6,1,0,1319
3,71,1,1,10,4,3,2,4,6,1,0,1284
3,72,1,1,11,4,3,6,4,8,0,0,1354
3,73,1,1,12,4,6,4,4,8,1,0,1165
3,74,1,1,13,4,4,3,4,6,1,0,1228
3,75,1,1,14,4,2,4,4,8,1,0,2931
3,76,1,1,15,4,6,2,4,6,1,0,1439
3,77,1,1,16,4,2,1,4,6,0,0,1314
3,78,1,1,17,4,1,1,4,8,0,0,1168
3,79,1,1,18,4,3,1,4,8,1,0,1313
3,80,1,1,19,4,3,6,4,6,0,0,1120
3,81,1,1,0,1,5,2,3,2,1,1,3463
3,82,1,1,1,1,2,5,3,3,0,0,886
3,83,1,1,2,1,6,3,3,2,1,0,611
3,84,1,1,3,1,4,5,3,2,1,0,953
3,85,1,1,4,1,5,4,3,2,1,0,1183
3,86,1,1,5,1,1,4,3,3,1,0,994
3,87,1,1,6,1,5,3,3,2,1,0,909
3,88,1,1,7,1,1,5,3,3,0,0,1071
3,89,1,1,8,1,4,1,3,2,0,0,416
3,90,1,1,9,1,2,3,3,3,1,0,1282
3,91,1,1,10,1,3,4,3,2,0,0,1579
3,92,1,1,11,1,1,6,3,2,1,0,1258
3,93,1,1,12,1,4,6,3,2,1,0,1206
3,94,1,1,13,1,4,6,3,2,1,0,712
3,95,1,1,14,1,4,3,3,3,1,0,1408
3,96,1,1,15,1,1,2,3,3,1,0,839
3,97,1,1,16,1,2,2,3,3,1,0,869
3,98,1,1,0,4,3,5,4,8,0,1,4382
3,99,1,1,1,4,3,1,4,8,1,0,1338
3,100,1,1,2,4,3,5,4,6,0,0,2750
3,101,1,1,3,4,1,1,4,8,1,0,2125
3,102,1,1,4,4,5,2,4,8,0,0,1637
3,103,1,1,5,4,4,4,4,8,1,0,1314
3,104,1,1,6,4,1,5,4,8,0,0,1144
3,105,1,1,7,4,3,3,4,6,1,0,1424
3,106,1,1,8,4,6,2,4,8,0,0,1383
3,107,1,1,9,4,6,5,4,6,0,0,4796
3,108,1,1,10,4,6,4,4,8,0,0,869
3,109,1,1,11,4,4,3,4,6,0,0,1118
3,110,1,1,12,4,5,1,4,8,1,0,1424
3,111,1,1,0,2,6,1,1,5,1,1,3260
3,112,1,1,1,2,4,1,1,5,1,0,1307
3,113,1,1,2,2,5,1,1,5,1,0,882
3,114,1,1,3,2,6,1,1,5,1,0,949
3,115,1,1,4,2,6,1,1,5,1,0,1145
3,116,1,1,5,2,4,1,1,5,1,0,1010
3,117,1,1,6,2,4,1,1,5,1,0,978
3,118,1,1,7,2,2,1,1,1,1,0,1027
3,119,1,1,0,4,2,1,4,6,1,1,5485
3,120,1,1,1,4,4,5,4,8,1,0,3147
3,121,1,1,2,4,3,2,4,8,1,0,6623
3,122,1,1,3,4,1,3,4,6,1,0,2875
3,123,1,1,4,4,2,4,4,6,1,0,2930
3,124,1,1,5,4,2,5,4,8,1,0,432
3,125,1,1,6,4,1,1,4,8,1,0,282
3,126,1,1,7,4,3,5,4,6,1,0,191
3,127,1,1,8,4,5,5,4,6,0,0,189
3,128,1,1,9,4,4,3,4,8,0,0,328
3,129,1,1,10,4,2,4,4,8,1,0,1322
3,130,1,1,11,4,1,2,4,6,1,0,1773
3,131,1,1,12,4,1,4,4,6,1,0,1352
3,132,1,1,13,4,1,3,4,6,1,0,954
3,133,1,1,14,4,3,4,4,6,1,0,1138
3,134,1,1,15,4,2,5,4,8,0,0,1253
3,135,1,1,16,4,4,1,4,8,0,0,5919
3,136,1,1,17,4,3,2,4,6,1,0,1537
3,137,1,1,18,4,3,5,4,6,1,0,1136
3,138,1,1,19,4,1,1,4,6,0,0,1026
3,139,1,1,20,4,1,6,4,8,0,0,4115
3,140,1,1,21,4,4,3,4,8,1,0,1103
3,141,1,1,22,4,2,3,4,8,1,0,1243
3,142,1,1,23,4,3,6,4,6,0,0,1768
3,143,1,1,24,4,2,2,4,6,0,0,1095
3,144,1,1,25,4,3,4,4,8,0,0,863
3,145,1,1,26,4,4,3,4,8,0,0,860
3,146,1,1,27,4,4,4,4,8,1,0,1093
3,147,1,1,28,4,5,5,4,8,0,0,1152
3,148,1,1,29,4,2,3,4,8,1,0,26729
3,149,1,1,30,4,2,5,4,8,1,0,945
3,150,1,1,31,4,4,6,4,8,1,0,1249
3,151,1,1,32,4,2,2,4,6,1,0,971
3,152,1,1,33,4,2,3,4,6,0,0,759
3,153,1,1,34,4,3,1,4,6,1,0,1416
3,154,1,1,35,4,2,5,4,8,1,0,875
3,155,1,1,36,4,6,2,4,6,0,0,1313
3,156,1,1,37,4,6,4,4,8,1,0,845
3,157,1,1,38,4,4,1,4,6,1,0,812
3,158,1,1,39,4,6,2,4,8,0,0,1221
3,159,1,1,40,4,6,5,4,8,0,0,1001
3,160,1,1,41,4,4,4,4,6,1,0,1859
3,161,1,1,42,4,4,4,4,6,1,0,696
3,162,1,1,43,4,5,4,4,6,1,0,728
3,163,1,1,44,4,4,1,4,8,0,0,831
3,164,1,1,45,4,1,4,4,6,0,0,1524
3,165,1,1,46,4,6,3,4,8,1,0,297
3,166,1,1,47,4,5,3,4,8,0,0,3810
3,167,1,1,0,1,6,2,3,2,1,1,1426
3,168,1,1,1,1,5,3,3,2,1,0,742
3,169,1,1,2,1,2,3,3,3,1,0,799
3,170,1,1,3,1,4,4,3,2,0,0,977
3,171,1,1,0,4,2,1,4,6,0,1,6359
3,172,1,1,1,4,1,5,4,6,0,0,5746
3,173,1,1,2,4,5,4,4,8,0,0,3592
3,174,1,1,3,4,3,4,4,8,0,0,985
3,175,1,1,4,4,3,3,4,6,0,0,851
3,176,1,1,5,4,4,2,4,6,1,0,463
3,177,1,1,6,4,3,1,4,8,0,0,275
3,178,1,1,7,4,6,4,4,6,1,0,213
3,179,1,1,8,4,1,1,4,8,0,0,292
3,180,1,1,9,4,5,6,4,6,0,0,175
3,181,1,1,10,4,1,3,4,6,1,0,158
3,182,1,1,11,4,5,2,4,8,1,0,454
3,183,1,1,12,4,1,3,4,6,0,0,157
3,184,1,1,13,4,6,1,4,8,0,0,1688
3,185,1,1,14,4,6,4,4,8,0,0,761
3,186,1,1,15,4,3,4,4,6,1,0,1296
3,187,1,1,16,4,5,5,4,6,0,0,838
3,188,1,1,17,4,3,2,4,8,0,0,17605
3,189,1,1,18,4,6,3,4,8,0,0,10768
3,190,1,1,19,4,5,6,4,6,1,0,9807
3,191,1,1,20,4,6,3,4,6,0,0,7527
3,192,1,1,21,4,4,1,4,8,0,0,1610
3,193,1,1,22,4,4,5,4,6,0,0,144
3,194,1,1,23,4,4,6,4,6,1,0,920
3,195,1,1,24,4,3,6,4,6,0,0,486
3,196,1,1,25,4,5,1,4,8,0,0,243
3,197,1,1,26,4,3,2,4,8,0,0,496
3,198,1,1,27,4,4,1,4,8,0,0,447
3,199,1,1,28,4,5,4,4,8,1,0,118
3,200,1,1,29,4,3,6,4,6,0,0,575
3,201,1,1,30,4,5,3,4,8,0,0,212
3,202,1,1,31,4,5,6,4,6,0,0,242
3,203,1,1,32,4,6,5,4,6,1,0,893
3,204,1,1,33,4,3,3,4,6,0,0,775
3,205,1,1,34,4,1,6,4,6,1,0,797
3,206,1,1,35,4,5,4,4,8,0,0,1009
3,207,1,1,36,4,1,4,4,6,0,0,828
3,208,1,1,37,4,3,1,4,8,0,0,2224
3,209,1,1,38,4,4,1,4,8,0,0,1507
3,210,1,1,39,4,6,6,4,6,1,0,2281
3,211,1,1,40,4,3,1,4,8,0,0,1382
3,212,1,1,41,4,2,2,4,6,0,0,1366
3,213,1,1,42,4,6,3,4,6,1,0,1149
3,214,1,1,43,4,2,5,4,6,0,0,1461
3,215,1,1,44,4,6,3,4,8,1,0,1553
3,216,1,1,45,4,1,4,4,8,0,0,1126
3,217,1,1,46,4,2,4,4,6,0,0,1149
3,218,1,1,47,4,3,1,4,8,0,0,289
3,219,1,1,48,4,3,3,4,6,1,0,623
3,220,1,1,49,4,6,2,4,6,1,0,1091
3,221,1,1,50,4,5,1,4,8,1,0,1000
3,222,1,1,51,4,6,3,4,6,1,0,758
3,223,1,1,52,4,5,6,4,8,1,0,438
3,224,1,1,53,4,1,4,4,6,0,0,290
3,225,1,1,54,4,4,1,4,6,0,0,257
3,226,1,1,55,4,5,1,4,8,1,0,296
3,227,1,1,56,4,5,4,4,8,0,0,579
3,228,1,1,57,4,3,6,4,6,0,0,491
3,229,1,1,58,4,5,2,4,8,0,0,837
3,230,1,1,59,4,5,4,4,6,1,0,949
3,231,1,1,60,4,1,3,4,8,0,0,1233
3,232,1,1,61,4,2,2,4,8,0,0,944
3,233,1,1,62,4,4,1,4,6,1,0,3498
3,234,1,1,63,4,5,6,4,6,1,0,908
3,235,1,1,64,4,1,2,4,8,0,0,2092
3,236,1,1,65,4,5,5,4,8,1,0,985
3,237,1,1,66,4,3,3,4,6,1,0,1368
3,238,1,1,67,4,4,6,4,6,0,0,1453
3,239,1,1,68,4,6,6,4,6,1,0,1759
3,240,1,1,69,4,3,5,4,6,1,0,1311
3,241,1,1,70,4,2,4,4,8,1,0,1431
3,242,1,1,71,4,3,4,4,8,1,0,923
3,243,1,1,72,4,2,3,4,8,0,0,1124
3,244,1,1,73,4,4,1,4,6,1,0,1095
3,245,1,1,74,4,2,6,4,6,0,0,1454
3,246,1,1,75,4,4,4,4,8,0,0,5362
3,247,1,1,76,4,4,3,4,8,1,0,1320
3,248,1,1,77,4,4,5,4,6,1,0,1290
3,249,1,1,78,4,2,6,4,6,1,0,579
3,250,1,1,79,4,3,2,4,8,0,0,1078
3,251,1,1,80,4,6,4,4,6,1,0,1110
3,252,1,1,81,4,1,1,4,6,1,0,1358
3,253,1,1,82,4,4,4,4,8,1,0,1259
3,254,1,1,83,4,6,3,4,8,1,0,923
3,255,1,1,84,4,1,4,4,6,0,0,1477
3,256,1,1,85,4,2,5,4,6,0,0,1157
3,257,1,1,86,4,3,2,4,8,1,0,1475
3,258,1,1,87,4,5,4,4,6,0,0,1202
3,259,1,1,88,4,1,5,4,8,1,0,1265
3,260,1,1,89,4,1,1,4,8,1,0,881
3,261,1,1,90,4,3,1,4,8,0,0,1649
3,262,1,1,91,4,6,3,4,8,1,0,785
3,263,1,1,92,4,6,2,4,8,0,0,884
3,264,1,1,93,4,3,2,4,6,0,0,1214
3,265,1,1,94,4,1,1,4,6,1,0,866
3,266,1,1,95,4,5,1,4,8,1,0,1242
3,267,1,1,96,4,5,1,4,8,0,0,604
3,268,1,1,97,4,2,2,4,6,1,0,2207
3,269,1,1,98,4,4,3,4,8,0,0,1461
3,270,1,1,99,4,6,2,4,8,1,0,2134
3,271,1,1,100,4,4,4,4,6,0,0,1101
3,272,1,1,101,4,2,2,4,6,0,0,874
3,273,1,1,102,4,5,2,4,8,1,0,914
3,274,1,1,103,4,1,3,4,6,0,0,859
3,275,1,1,104,4,5,6,4,8,0,0,1016
3,276,1,1,105,4,4,2,4,6,0,0,599
3,277,1,1,106,4,3,1,4,8,0,0,929
3,278,1,1,107,4,2,2,4,8,1,0,1188
3,279,1,1,108,4,4,4,4,6,1,0,1110
3,280,1,1,109,4,4,3,4,6,0,0,2035
3,281,1,1,110,4,4,4,4,8,1,0,906
3,282,1,1,111,4,3,2,4,8,0,0,1195
3,283,1,1,112,4,1,3,4,6,0,0,967
3,284,1,1,113,4,4,5,4,6,0,0,3150
3,285,1,1,114,4,3,2,4,8,1,0,694
3,286,1,1,115,4,5,5,4,8,0,0,970
3,287,1,1,116,4,1,3,4,6,0,0,4309
3,288,1,1,117,4,3,1,4,8,0,0,1163
3,289,1,1,118,4,2,3,4,6,1,0,407
3,290,1,1,119,4,6,5,4,6,1,0,839
3,291,1,1,120,4,5,2,4,8,1,0,1062
3,292,1,1,121,4,5,2,4,8,1,0,523
3,293,1,1,122,4,6,2,4,8,1,0,906
3,294,1,1,123,4,2,6,4,6,1,0,1546
3,295,1,1,124,4,2,1,4,6,1,0,1397
3,296,1,1,125,4,3,1,4,6,1,0,1196
3,297,1,1,126,4,6,1,4,8,1,0,953
3,298,1,1,127,4,6,1,4,8,0,0,532
3,299,1,1,128,4,2,1,4,6,0,0,1177
3,300,1,1,129,4,6,2,4,8,0,0,827
3,301,1,1,130,4,3,1,4,6,0,0,802
3,302,1,1,131,4,6,1,4,8,1,0,868
3,303,1,1,132,4,1,6,4,8,1,0,1039
3,304,1,1,133,4,2,3,4,6,0,0,1178
3,305,1,1,134,4,3,4,4,6,0,0,798
3,306,1,1,135,4,6,1,4,8,0,0,709
3,307,1,1,136,4,5,4,4,6,0,0,851
3,308,1,1,137,4,6,5,4,8,1,0,1121
3,309,1,1,138,4,6,5,4,8,1,0,564
3,310,1,1,139,4,3,5,4,8,1,0,1166
3,311,1,2,0,1,2,5,3,3,0,1,1250
3,312,1,2,1,1,3,1,3,3,1,0,1452
3,313,1,2,2,1,2,5,3,2,1,0,788
3,314,1,2,3,1,6,4,3,2,1,0,810
3,315,1,2,4,1,2,2,3,3,1,0,834
3,316,1,2,5,1,1,2,3,3,1,0,718
3,317,1,2,6,1,3,1,3,3,1,0,635
3,318,1,2,7,1,6,2,3,2,1,0,952
3,319,1,2,8,1,4,4,3,2,0,0,751
3,320,1,2,9,1,5,6,3,2,1,0,1040
3,321,1,2,10,1,2,2,3,3,1,0,976
3,322,1,2,11,1,6,1,3,2,1,0,2381
3,323,1,2,12,1,2,4,3,3,1,0,1022
3,324,1,2,13,1,3,2,3,3,1,0,1469
3,325,1,2,14,1,4,2,3,3,1,0,914
3,326,1,2,0,2,4,1,1,5,1,1,1794
3,327,1,2,1,2,2,1,1,1,1,0,1022
3,328,1,2,2,2,1,1,1,1,1,0,672
3,329,1,2,3,2,1,1,1,1,1,0,616
3,330,1,2,4,2,6,1,1,5,1,0,829
3,331,1,2,5,2,4,1,1,5,1,0,488
3,332,1,2,6,2,3,1,1,5,1,0,717
3,333,1,2,7,2,3,1,1,5,1,0,773
3,334,1,2,8,2,5,1,1,5,1,0,704
3,335,1,2,9,2,5,1,1,5,1,0,538
3,336,1,2,10,2,2,1,1,1,1,0,892
3,337,1,2,11,2,1,1,1,1,1,0,708
3,338,1,2,12,2,1,1,1,1,1,0,540
3,339,1,2,13,2,6,1,1,5,1,0,806
3,340,1,2,14,2,3,1,1,5,1,0,796
3,341,1,2,0,4,1,2,4,6,1,1,2214
3,342,1,2,1,4,2,2,4,8,0,0,1258
3,343,1,2,2,4,3,6,4,6,0,0,1319
3,344,1,2,3,4,5,5,4,8,0,0,1054
3,345,1,2,4,4,3,1,4,8,1,0,1290
3,346,1,2,5,4,6,5,4,6,0,0,1209
3,347,1,2,6,4,4,3,4,8,0,0,1333
3,348,1,2,7,4,1,3,4,8,0,0,1100
3,349,1,2,8,4,1,3,4,8,0,0,927
3,350,1,2,9,4,6,1,4,8,1,0,954
3,351,1,2,10,4,3,4,4,8,1,0,1272
3,352,1,2,11,4,3,4,4,8,0,0,788
3,353,1,2,12,4,4,2,4,8,1,0,946
3,354,1,2,13,4,2,2,4,6,1,0,841
3,355,1,2,14,4,1,5,4,6,0,0,790
3,356,1,2,0,3,5,1,2,4,1,1,1291
3,357,1,2,1,3,3,1,2,7,1,0,924
3,358,1,2,2,3,2,2,2,7,1,0,1388
3,359,1,2,3,3,1,5,2,7,1,0,1148
3,360,1,2,4,3,1,3,2,7,1,0,805
3,361,1,2,5,3,1,5,2,7,1,0,611
3,362,1,2,6,3,5,4,2,4,1,0,922
3,363,1,2,7,3,4,6,2,4,1,0,717
3,364,1,2,8,3,6,4,2,4,1,0,641
3,365,1,2,9,3,6,3,2,4,1,0,704
3,366,1,2,10,3,2,3,2,7,1,0,936
3,367,1,2,11,3,1,6,2,7,1,0,673
3,368,1,2,12,3,5,2,2,4,1,0,888
3,369,1,2,13,3,4,3,2,4,1,0,741
3,370,1,2,14,3,4,1,2,4,1,0,830
4,1,0,0,0,4,2,1,1,1,1,1,1273
4,2,0,0,1,4,1,1,1,5,0,0,281
4,3,0,0,2,4,6,1,1,5,1,0,211
4,4,0,0,3,4,5,1,1,1,0,0,462
4,5,0,0,4,4,3,1,1,1,0,0,192
4,6,0,0,5,4,5,1,1,1,0,0,188
4,7,0,0,6,4,1,1,1,1,1,0,420
4,8,0,0,7,4,6,1,1,1,0,0,186
4,9,0,0,8,4,2,1,1,5,0,0,190
4,10,0,0,9,4,6,1,1,5,1,0,115
4,11,0,0,10,4,2,1,1,1,1,0,220
4,12,0,0,11,4,3,1,1,1,0,0,234
4,13,0,0,12,4,5,1,1,5,1,0,200
4,14,0,0,13,4,5,1,1,5,1,0,173
4,15,0,0,14,4,5,1,1,5,1,0,163
4,16,0,0,0,1,5,5,2,4,1,1,429
4,17,0,0,1,1,1,4,2,4,0,0,122
4,18,0,0,2,1,3,3,2,7,1,0,402
4,19,0,0,3,1,3,3,2,7,1,0,223
4,20,0,0,4,1,1,4,2,7,1,0,149
4,21,0,0,5,1,2,4,2,7,1,0,118
4,22,0,0,6,1,6,4,2,7,0,0,290
4,23,0,0,7,1,3,3,2,7,1,0,166
4,24,0,0,8,1,2,1,2,7,1,0,299
4,25,0,0,9,1,5,4,2,7,0,0,149
4,26,0,0,10,1,1,3,2,7,1,0,321
4,27,0,0,11,1,2,2,2,7,1,0,166
4,28,0,0,12,1,3,6,2,7,1,0,160
4,29,0,0,13,1,3,3,2,7,1,0,230
4,30,0,0,14,1,2,3,2,7,1,0,186
4,31,0,0,0,3,3,2,4,8,1,1,300
4,32,0,0,1,3,1,4,4,8,0,0,157
4,33,0,0,2,3,6,3,4,6,1,0,335
4,34,0,0,3,3,4,6,4,6,1,0,161
4,35,0,0,4,3,2,3,4,6,1,0,135
4,36,0,0,5,3,5,1,4,6,1,0,254
4,37,0,0,6,3,3,5,4,6,1,0,122
4,38,0,0,7,3,1,3,4,6,0,0,169
4,39,0,0,8,3,3,3,4,6,0,0,180
4,40,0,0,9,3,1,2,4,6,1,0,180
4,41,0,0,10,3,2,3,4,8,1,0,185
4,42,0,0,11,3,6,6,4,6,1,0,348
4,43,0,0,12,3,5,4,4,8,1,0,149
4,44,0,0,13,3,1,5,4,6,1,0,169
4,45,0,0,14,3,2,3,4,8,0,0,251
4,46,0,0,0,2,3,1,3,2,0,1,178
4,47,0,0,1,2,2,5,3,2,1,0,195
4,48,0,0,2,2,6,6,3,2,1,0,239
4,49,0,0,3,2,6,5,3,2,1,0,299
4,50,0,0,4,2,1,6,3,2,1,0,132
4,51,0,0,5,2,6,3,3,2,1,0,147
4,52,0,0,6,2,1,5,3,2,1,0,142
4,53,0,0,7,2,6,3,3,3,0,0,168
4,54,0,0,8,2,5,6,3,2,1,0,249
4,55,0,0,9,2,4,5,3,2,1,0,263
4,56,0,0,10,2,3,3,3,2,0,0,253
4,57,0,0,11,2,6,6,3,2,1,0,208
4,58,0,0,12,2,1,5,3,2,1,0,4887
4,59,0,0,13,2,6,5,3,2,1,0,360
4,60,0,0,14,2,4,5,3,2,1,0,209
4,61,0,1,0,3,3,4,4,6,0,1,828
4,62,0,1,1,3,5,4,4,8,0,0,248
4,63,0,1,2,3,5,6,4,8,1,0,129
4,64,0,1,3,3,6,2,4,8,0,0,205
4,65,0,1,4,3,1,1,4,6,0,0,298
4,66,0,1,5,3,1,4,4,6,1,0,239
4,67,0,1,6,3,4,6,4,8,1,0,268
4,68,0,1,7,3,1,3,4,8,1,0,327
4,69,0,1,8,3,5,1,4,8,1,0,114
4,70,0,1,9,3,6,2,4,8,1,0,285
4,71,0,1,10,3,5,4,4,8,0,0,301
4,72,0,1,11,3,4,1,4,8,0,0,282
4,73,0,1,12,3,4,4,4,6,0,0,163
4,74,0,1,13,3,1,4,4,6,1,0,304
4,75,0,1,14,3,2,1,4,6,1,0,257
4,76,0,1,15,3,4,4,4,6,0,0,266
4,77,0,1,16,3,4,3,4,8,0,0,175
4,78,0,1,17,3,6,6,4,8,0,0,304
4,79,0,1,18,3,1,1,4,8,0,0,180
4,80,0,1,19,3,4,6,4,8,0,0,225
4,81,0,1,20,3,5,1,4,8,1,0,505
4,82,0,1,21,3,6,1,4,8,1,0,469
4,83,0,1,22,3,4,6,4,8,1,0,341
4,84,0,1,23,3,3,2,4,8,1,0,194
4,85,0,1,24,3,1,2,4,8,0,0,132
4,86,0,1,25,3,3,6,4,8,0,0,156
4,87,0,1,26,3,4,5,4,8,1,0,219
4,88,0,1,27,3,2,4,4,8,1,0,151
4,89,0,1,28,3,1,3,4,8,0,0,161
4,90,0,1,29,3,6,4,4,8,1,0,196
4,91,0,1,30,3,3,6,4,8,0,0,300
4,92,0,1,31,3,6,1,4,8,1,0,108
4,93,0,1,32,3,6,6,4,8,0,0,298
4,94,0,1,33,3,3,3,4,8,1,0,156
4,95,0,1,34,3,3,6,4,8,0,0,119
4,96,0,1,35,3,3,4,4,8,1,0,153
4,97,0,1,36,3,3,5,4,8,0,0,413
4,98,0,1,37,3,1,3,4,8,1,0,102
4,99,0,1,38,3,3,5,4,6,1,0,154
4,100,0,1,39,3,1,4,4,6,0,0,153
4,101,0,1,40,3,4,4,4,6,0,0,252
4,102,0,1,41,3,6,1,4,6,0,0,450
4,103,0,1,42,3,4,5,4,6,0,0,293
4,104,0,1,43,3,3,3,4,6,0,0,294
4,105,0,1,44,3,1,1,4,6,0,0,210
4,106,0,1,45,3,5,2,4,6,0,0,209
4,107,0,1,46,3,1,2,4,6,1,0,174
4,108,0,1,47,3,4,2,4,6,0,0,154
4,109,0,1,0,4,2,1,1,5,0,1,578
4,110,0,1,1,4,3,1,1,5,1,0,115
4,111,0,1,2,4,2,1,1,5,0,0,116
4,112,0,1,3,4,6,1,1,5,1,0,142
4,113,0,1,4,4,1,1,1,5,0,0,270
4,114,0,1,5,4,4,1,1,5,1,0,145
4,115,0,1,6,4,6,1,1,5,1,0,160
4,116,0,1,7,4,2,1,1,5,0,0,169
4,117,0,1,8,4,4,1,1,5,1,0,188
4,118,0,1,9,4,6,1,1,1,0,0,476
4,119,0,1,10,4,2,1,1,1,1,0,222
4,120,0,1,11,4,4,1,1,1,0,0,634
4,121,0,1,12,4,5,1,1,1,0,0,313
4,122,0,1,13,4,5,1,1,1,0,0,235
4,123,0,1,14,4,6,1,1,1,0,0,174
4,124,0,1,15,4,6,1,1,1,0,0,165
4,125,0,1,16,4,2,1,1,1,1,0,226
4,126,0,1,0,1,1,6,2,7,1,1,1061
4,127,0,1,1,1,4,4,2,4,1,0,920
4,128,0,1,2,1,4,4,2,4,1,0,293
4,129,0,1,3,1,6,3,2,4,1,0,165
4,130,0,1,4,1,1,3,2,4,0,0,125
4,131,0,1,5,1,6,4,2,4,1,0,272
4,132,0,1,6,1,2,6,2,7,1,0,1354
4,133,0,1,7,1,4,6,2,7,0,0,296
4,134,0,1,8,1,3,2,2,7,1,0,163
4,135,0,1,9,1,4,4,2,7,0,0,120
4,136,0,1,10,1,2,6,2,7,1,0,184
4,137,0,1,11,1,3,5,2,4,0,0,1476
4,138,0,1,12,1,1,5,2,4,0,0,142
4,139,0,1,13,1,4,2,2,7,0,0,217
4,140,0,1,14,1,1,2,2,7,1,0,1151
4,141,0,1,15,1,5,2,2,7,0,0,257
4,142,0,1,16,1,4,3,2,4,1,0,200
4,143,0,1,17,1,2,5,2,4,0,0,297
4,144,0,1,18,1,1,1,2,7,1,0,158
4,145,0,1,19,1,1,5,2,4,0,0,144
4,146,0,1,20,1,6,1,2,7,0,0,171
4,147,0,1,21,1,3,4,2,4,0,0,137
4,148,0,1,22,1,5,1,2,7,0,0,273
4,149,0,1,23,1,4,5,2,4,1,0,11982
4,150,0,1,24,1,3,3,2,7,1,0,417
4,151,0,1,25,1,1,6,2,7,1,0,193
4,152,0,1,26,1,5,1,2,7,0,0,257
4,153,0,1,27,1,6,5,2,7,0,0,152
4,154,0,1,28,1,2,1,2,7,1,0,140
4,155,0,1,29,1,2,1,2,7,1,0,295
4,156,0,1,30,1,2,2,2,4,0,0,143
4,157,0,1,31,1,2,2,2,4,0,0,156
4,158,0,1,32,1,6,3,2,4,1,0,187
4,159,0,1,33,1,3,3,2,4,0,0,312
4,160,0,1,34,1,6,2,2,4,1,0,535
4,161,0,1,35,1,4,1,2,4,1,0,164
4,162,0,1,36,1,3,6,2,4,0,0,135
4,163,0,1,0,3,6,2,4,8,0,1,572
4,164,0,1,1,3,5,6,4,8,1,0,277
4,165,0,1,2,3,1,6,4,8,0,0,304
4,166,0,1,3,3,3,4,4,8,0,0,254
4,167,0,1,4,3,3,4,4,8,1,0,233
4,168,0,1,5,3,1,2,4,8,0,0,188
4,169,0,1,6,3,2,4,4,6,0,0,205
4,170,0,1,7,3,1,2,4,6,0,0,278
4,171,0,1,8,3,3,4,4,6,0,0,136
4,172,0,1,9,3,3,6,4,6,0,0,119
4,173,0,1,10,3,5,2,4,6,1,0,124
4,174,0,1,11,3,1,5,4,6,1,0,145
4,175,0,1,12,3,1,6,4,6,1,0,295
4,176,0,1,13,3,4,2,4,6,0,0,154
4,177,0,1,14,3,5,6,4,6,1,0,234
4,178,0,1,15,3,5,1,4,6,1,0,134
4,179,0,1,16,3,1,4,4,6,1,0,143
4,180,0,1,17,3,2,4,4,8,0,0,352
4,181,0,1,18,3,1,6,4,8,1,0,459
4,182,0,1,19,3,6,5,4,8,1,0,302
4,183,0,1,20,3,6,3,4,8,1,0,278
4,184,0,1,21,3,5,3,4,8,1,0,228
4,185,0,1,22,3,4,6,4,6,1,0,391
4,186,0,1,23,3,6,3,4,6,0,0,270
4,187,0,1,24,3,6,4,4,6,1,0,164
4,188,0,1,25,3,5,4,4,6,0,0,145
4,189,0,1,26,3,4,6,4,6,0,0,190
4,190,0,1,27,3,1,2,4,8,0,0,875
4,191,0,1,28,3,5,6,4,8,0,0,146
4,192,0,1,29,3,6,1,4,8,0,0,373
4,193,0,1,30,3,2,4,4,8,0,0,563
4,194,0,1,31,3,4,4,4,8,1,0,310
4,195,0,1,32,3,4,1,4,8,0,0,156
4,196,0,1,33,3,6,3,4,6,1,0,746
4,197,0,1,34,3,4,2,4,6,0,0,203
4,198,0,1,35,3,5,1,4,6,1,0,144
4,199,0,1,36,3,5,1,4,6,1,0,280
4,200,0,1,37,3,2,3,4,6,0,0,116
4,201,0,1,38,3,4,5,4,8,1,0,193
4,202,0,1,39,3,1,4,4,8,0,0,358
4,203,0,1,40,3,5,1,4,8,0,0,237
4,204,0,1,41,3,2,4,4,8,0,0,154
4,205,0,1,42,3,6,3,4,8,1,0,374
4,206,0,1,43,3,5,2,4,8,1,0,144
4,207,0,1,44,3,4,1,4,8,0,0,148
4,208,0,1,45,3,4,6,4,6,1,0,615
4,209,0,1,46,3,4,6,4,6,0,0,460
4,210,0,1,47,3,5,2,4,6,1,0,258
4,211,0,1,48,3,2,3,4,6,1,0,263
4,212,0,1,49,3,3,3,4,6,1,0,198
4,213,0,1,50,3,1,5,4,6,0,0,1136
4,214,0,1,0,2,6,1,3,3,0,1,507
4,215,0,1,1,2,5,4,3,3,0,0,123
4,216,0,1,2,2,1,1,3,2,0,0,115
4,217,0,1,3,2,5,4,3,2,1,0,198
4,218,0,1,4,2,1,5,3,2,1,0,256
4,219,0,1,5,2,4,4,3,2,0,0,250
4,220,0,1,6,2,1,3,3,2,0,0,263
4,221,0,1,7,2,6,1,3,2,1,0,317
4,222,0,1,8,2,5,4,3,2,1,0,192
4,223,0,1,9,2,3,1,3,2,0,0,167
4,224,0,1,10,2,4,5,3,2,1,0,149
4,225,0,1,11,2,4,5,3,2,1,0,102
4,226,0,1,12,2,5,6,3,2,1,0,152
4,227,0,1,13,2,5,6,3,3,0,0,145
4,228,0,1,0,3,3,1,4,6,0,1,640
4,229,0,1,1,3,4,2,4,8,1,0,182
4,230,0,1,2,3,2,3,4,8,0,0,141
4,231,0,1,3,3,5,6,4,8,1,0,141
4,232,0,1,4,3,1,2,4,8,1,0,125
4,233,0,1,5,3,5,2,4,8,0,0,1216
4,234,0,1,6,3,2,4,4,6,1,0,196
4,235,0,1,7,3,4,2,4,6,0,0,179
4,236,0,1,8,3,6,4,4,8,0,0,290
4,237,0,1,9,3,3,1,4,8,0,0,308
4,238,0,1,10,3,3,1,4,8,1,0,550
4,239,0,1,11,3,6,6,4,8,1,0,198
4,240,0,1,12,3,1,4,4,8,0,0,153
4,241,0,1,13,3,2,1,4,8,1,0,1480
4,242,0,1,14,3,2,4,4,8,1,0,285
4,243,0,1,15,3,2,3,4,8,1,0,287
4,244,0,1,16,3,5,5,4,8,1,0,172
4,245,0,1,17,3,5,1,4,8,1,0,412
4,246,0,1,18,3,5,3,4,8,1,0,689
4,247,0,1,19,3,1,6,4,8,1,0,210
4,248,0,1,20,3,2,2,4,8,1,0,264
4,249,0,1,21,3,1,5,4,8,0,0,155
4,250,0,1,22,3,3,6,4,8,1,0,200
4,251,0,1,23,3,2,6,4,8,1,0,211
4,252,0,1,24,3,4,3,4,6,1,0,227
4,253,0,1,25,3,5,2,4,6,1,0,269
4,254,0,1,26,3,2,6,4,6,0,0,339
4,255,0,1,27,3,5,3,4,8,1,0,604
4,256,0,1,28,3,2,3,4,6,1,0,243
4,257,0,1,29,3,2,3,4,8,0,0,187
4,258,0,1,30,3,6,6,4,6,1,0,139
4,259,0,1,31,3,1,3,4,6,0,0,111
4,260,0,1,32,3,2,2,4,8,1,0,175
4,261,0,1,33,3,6,6,4,6,0,0,437
4,262,0,1,34,3,4,2,4,8,1,0,239
4,263,0,1,35,3,6,2,4,6,1,0,194
4,264,0,1,36,3,4,3,4,8,1,0,231
4,265,0,1,37,3,6,5,4,8,1,0,642
4,266,0,1,38,3,4,3,4,8,1,0,386
4,267,0,1,39,3,6,6,4,6,1,0,1619
4,268,0,1,40,3,3,1,4,8,1,0,254
4,269,0,1,41,3,4,1,4,6,1,0,243
4,270,0,1,42,3,5,5,4,8,1,0,260
4,271,0,1,43,3,1,1,4,6,0,0,268
4,272,0,1,44,3,1,1,4,8,0,0,280
4,273,0,1,45,3,6,1,4,8,1,0,134
4,274,0,1,46,3,3,6,4,8,1,0,593
4,275,0,1,47,3,3,5,4,8,1,0,263
4,276,0,1,48,3,1,6,4,6,0,0,873
4,277,0,1,49,3,5,1,4,8,0,0,188
4,278,0,1,50,3,5,5,4,6,0,0,273
4,279,0,1,51,3,1,1,4,8,0,0,559
4,280,0,1,52,3,6,1,4,8,0,0,1469
4,281,0,1,53,3,5,5,4,6,0,0,262
4,282,0,1,54,3,2,4,4,8,0,0,558
4,283,0,1,55,3,1,4,4,8,0,0,132
4,284,0,1,56,3,1,1,4,6,0,0,406
4,285,0,1,57,3,1,5,4,6,1,0,353
4,286,0,1,58,3,5,6,4,6,1,0,127
4,287,0,1,59,3,6,2,4,6,1,0,300
4,288,0,1,60,3,2,1,4,6,1,0,244
4,289,0,1,61,3,3,4,4,6,0,0,235
4,290,0,1,62,3,5,6,4,6,0,0,325
4,291,0,1,63,3,5,3,4,6,1,0,170
4,292,0,1,64,3,5,3,4,8,1,0,1545
4,293,0,1,65,3,6,4,4,8,1,0,154
4,294,0,1,66,3,5,1,4,8,0,0,988
4,295,0,1,67,3,6,3,4,6,0,0,987
4,296,0,1,68,3,4,4,4,8,1,0,136
4,297,0,1,69,3,1,6,4,8,1,0,273
4,298,0,1,70,3,4,1,4,8,1,0,242
4,299,0,1,71,3,1,2,4,8,1,0,225
4,300,0,1,72,3,5,1,4,8,0,0,111
4,301,0,1,73,3,4,4,4,8,1,0,151
4,302,0,1,74,3,5,6,4,8,1,0,307
4,303,0,1,75,3,5,6,4,8,0,0,289
4,304,0,1,76,3,5,2,4,6,1,0,442
4,305,0,1,77,3,4,3,4,6,1,0,371
4,306,0,1,78,3,3,5,4,6,0,0,322
4,307,0,1,79,3,1,3,4,8,0,0,216
4,308,0,1,80,3,2,2,4,8,1,0,191
4,309,0,1,81,3,6,2,4,8,0,0,215
4,310,0,1,82,3,2,5,4,8,1,0,170
4,311,0,2,0,3,5,1,4,6,1,1,362
4,312,0,2,1,3,6,6,4,8,1,0,132
4,313,0,2,2,3,2,1,4,6,0,0,100
4,314,0,2,3,3,1,3,4,8,0,0,235
4,315,0,2,4,3,5,2,4,8,0,0,143
4,316,0,2,5,3,5,4,4,6,1,0,186
4,317,0,2,6,3,6,1,4,8,0,0,1080
4,318,0,2,7,3,5,3,4,6,1,0,127
4,319,0,2,8,3,1,3,4,6,1,0,192
4,320,0,2,9,3,6,6,4,8,1,0,213
4,321,0,2,10,3,3,1,4,6,1,0,234
4,322,0,2,11,3,3,3,4,8,0,0,240
4,323,0,2,12,3,3,4,4,6,0,0,143
4,324,0,2,13,3,3,6,4,8,1,0,232
4,325,0,2,14,3,2,5,4,8,0,0,245
4,326,0,2,0,1,5,3,2,4,1,1,234
4,327,0,2,1,1,5,1,2,4,1,0,253
4,328,0,2,2,1,4,4,2,4,1,0,137
4,329,0,2,3,1,1,6,2,7,1,0,1113
4,330,0,2,4,1,2,1,2,7,1,0,562
4,331,0,2,5,1,4,3,2,7,0,0,692
4,332,0,2,6,1,6,5,2,4,1,0,763
4,333,0,2,7,1,5,5,2,4,1,0,2227
4,334,0,2,8,1,2,5,2,7,1,0,677
4,335,0,2,9,1,2,3,2,4,0,0,628
4,336,0,2,10,1,3,5,2,7,1,0,339
4,337,0,2,11,1,3,6,2,7,1,0,794
4,338,0,2,12,1,1,6,2,7,1,0,868
4,339,0,2,13,1,6,6,2,7,0,0,1099
4,340,0,2,14,1,6,4,2,4,1,0,928
4,341,0,2,0,2,3,5,3,2,1,1,612
4,342,0,2,1,2,2,1,3,3,1,0,1887
4,343,0,2,2,2,3,6,3,2,1,0,617
4,344,0,2,3,2,6,5,3,3,0,0,735
4,345,0,2,4,2,4,4,3,2,0,0,580
4,346,0,2,5,2,1,6,3,3,0,0,1113
4,347,0,2,6,2,1,1,3,2,0,0,446
4,348,0,2,7,2,3,6,3,2,1,0,210
4,349,0,2,8,2,1,2,3,2,0,0,187
4,350,0,2,9,2,5,6,3,3,0,0,257
4,351,0,2,10,2,3,1,3,2,0,0,213
4,352,0,2,11,2,2,6,3,3,0,0,843
4,353,0,2,12,2,1,2,3,2,0,0,259
4,354,0,2,13,2,2,6,3,2,1,0,285
4,355,0,2,14,2,4,6,3,2,1,0,240
4,356,0,2,0,4,5,1,1,1,0,1,220
4,357,0,2,1,4,3,1,1,1,0,0,242
4,358,0,2,2,4,2,1,1,5,0,0,384
4,359,0,2,3,4,6,1,1,1,0,0,187
4,360,0,2,4,4,5,1,1,1,0,0,153
4,361,0,2,5,4,2,1,1,5,0,0,254
4,362,0,2,6,4,5,1,1,1,0,0,296
4,363,0,2,7,4,5,1,1,1,0,0,146
4,364,0,2,8,4,4,1,1,5,1,0,289
4,365,0,2,9,4,4,1,1,1,0,0,171
4,366,0,2,10,4,3,1,1,1,0,0,1109
4,367,0,2,11,4,5,1,1,1,0,0,186
4,368,0,2,12,4,1,1,1,5,0,0,379
4,369,0,2,13,4,5,1,1,1,0,0,117
4,370,0,2,14,4,3,1,1,1,0,0,250
5,1,0,0,0,2,6,1,1,6,0,1,3358
5,2,0,0,1,2,2,1,1,8,0,0,1922
5,3,0,0,2,2,4,1,1,6,0,0,1425
5,4,0,0,3,2,4,1,1,8,1,0,2199
5,5,0,0,4,2,2,1,1,8,0,0,1584
5,6,0,0,5,2,2,1,1,6,1,0,1684
5,7,0,0,6,2,4,1,1,6,0,0,2252
5,8,0,0,7,2,3,1,1,8,1,0,1118
5,9,0,0,8,2,4,1,1,8,1,0,3439
5,10,0,0,9,2,6,1,1,8,1,0,2003
5,11,0,0,10,2,5,1,1,8,1,0,1581
5,12,0,0,11,2,5,1,1,8,1,0,1417
5,13,0,0,12,2,3,1,1,8,1,0,1154
5,14,0,0,13,2,2,1,1,8,0,0,1886
5,15,0,0,14,2,4,1,1,6,0,0,1339
5,16,0,0,0,1,6,2,4,1,1,1,2104
5,17,0,0,1,1,1,6,4,5,0,0,2570
5,18,0,0,2,1,5,1,4,1,1,0,1319
5,19,0,0,3,1,4,3,4,1,1,0,1058
5,20,0,0,4,1,1,3,4,1,1,0,1089
5,21,0,0,5,1,3,1,4,1,0,0,1302
5,22,0,0,6,1,5,3,4,5,0,0,1412
5,23,0,0,7,1,3,6,4,1,0,0,1475
5,24,0,0,8,1,5,1,4,1,1,0,1332
5,25,0,0,9,1,4,3,4,1,0,0,1209
5,26,0,0,10,1,2,4,4,1,1,0,1697
5,27,0,0,11,1,3,6,4,1,0,0,3029
5,28,0,0,12,1,5,4,4,5,1,0,1046
5,29,0,0,13,1,1,4,4,1,1,0,1523
5,30,0,0,14,1,4,3,4,5,0,0,1186
5,31,0,0,0,4,3,1,3,3,1,1,2123
5,32,0,0,1,4,1,1,3,2,0,0,3098
5,33,0,0,2,4,5,5,3,3,0,0,1382
5,34,0,0,3,4,1,3,3,3,1,0,1458
5,35,0,0,4,4,5,6,3,3,0,0,1362
5,36,0,0,5,4,2,1,3,3,1,0,1203
5,37,0,0,6,4,1,3,3,3,1,0,1173
5,38,0,0,7,4,1,6,3,3,0,0,2031
5,39,0,0,8,4,5,6,3,2,1,0,1888
5,40,0,0,9,4,5,1,3,2,1,0,1855
5,41,0,0,10,4,6,4,3,3,0,0,2127
5,42,0,0,11,4,1,4,3,3,1,0,1684
5,43,0,0,12,4,2,2,3,3,1,0,1583
5,44,0,0,13,4,4,4,3,2,0,0,1692
5,45,0,0,14,4,2,5,3,3,0,0,1742
5,46,0,0,0,3,1,1,2,7,1,1,2003
5,47,0,0,1,3,1,5,2,4,0,0,1757
5,48,0,0,2,3,4,4,2,7,0,0,1502
5,49,0,0,3,3,4,1,2,4,1,0,2020
5,50,0,0,4,3,2,5,2,7,1,0,1704
5,51,0,0,5,3,1,3,2,7,1,0,1303
5,52,0,0,6,3,2,4,2,7,1,0,1154
5,53,0,0,7,3,1,6,2,7,1,0,1357
5,54,0,0,8,3,2,4,2,7,1,0,1260
5,55,0,0,9,3,1,3,2,7,1,0,1067
5,56,0,0,10,3,6,1,2,4,1,0,1601
5,57,0,0,11,3,5,2,2,4,1,0,2032
5,58,0,0,12,3,3,4,2,7,1,0,3166
5,59,0,0,13,3,4,5,2,7,0,0,1471
5,60,0,0,14,3,2,6,2,7,1,0,1069
5,61,0,1,0,3,4,4,2,7,0,1,1840
5,62,0,1,1,3,5,4,2,4,1,0,1314
5,63,0,1,2,3,4,5,2,4,1,0,1018
5,64,0,1,3,3,3,5,2,7,1,0,1459
5,65,0,1,4,3,2,2,2,4,0,0,1613
5,66,0,1,5,3,2,3,2,4,0,0,1261
5,67,0,1,6,3,5,1,2,4,1,0,1385
5,68,0,1,7,3,3,2,2,7,1,0,1565
5,69,0,1,8,3,5,3,2,7,0,0,1554
5,70,0,1,9,3,5,3,2,7,0,0,1609
5,71,0,1,10,3,5,3,2,4,1,0,1344
5,72,0,1,11,3,6,5,2,4,1,0,1061
5,73,0,1,12,3,3,1,2,4,0,0,1362
5,74,0,1,13,3,4,3,2,4,1,0,1945
5,75,0,1,14,3,3,3,2,7,1,0,1420
5,76,0,1,15,3,2,4,2,7,1,0,1374
5,77,0,1,16,3,2,5,2,7,1,0,1072
5,78,0,1,17,3,1,1,2,4,0,0,1799
5,79,0,1,18,3,1,5,2,7,1,0,1396
5,80,0,1,19,3,2,5,2,7,1,0,853
5,81,0,1,20,3,4,5,2,4,1,0,1599
5,82,0,1,21,3,5,5,2,4,1,0,980
5,83,0,1,22,3,4,4,2,4,1,0,1101
5,84,0,1,23,3,3,3,2,4,0,0,1129
5,85,0,1,24,3,4,3,2,4,1,0,1487
5,86,0,1,25,3,6,3,2,4,1,0,1001
5,87,0,1,26,3,3,1,2,4,0,0,1265
5,88,0,1,27,3,4,2,2,4,1,0,1486
5,89,0,1,28,3,2,2,2,7,1,0,1556
5,90,0,1,29,3,2,6,2,7,1,0,1612
5,91,0,1,30,3,1,6,2,7,1,0,1176
5,92,0,1,31,3,2,3,2,7,1,0,1466
5,93,0,1,32,3,5,6,2,4,1,0,1581
5,94,0,1,33,3,4,4,2,4,1,0,1051
5,95,0,1,34,3,2,2,2,7,1,0,1771
5,96,0,1,35,3,3,2,2,4,0,0,1843
5,97,0,1,36,3,1,1,2,7,1,0,548
5,98,0,1,37,3,4,4,2,7,0,0,963
5,99,0,1,38,3,1,3,2,4,0,0,1417
5,100,0,1,39,3,6,1,2,7,0,0,594
5,101,0,1,40,3,1,4,2,4,0,0,753
5,102,0,1,41,3,3,5,2,7,1,0,585
5,103,0,1,42,3,1,1,2,7,1,0,919
5,104,0,1,43,3,2,6,2,7,1,0,1172
5,105,0,1,44,3,2,6,2,7,1,0,944
5,106,0,1,45,3,4,5,2,7,0,0,1190
5,107,0,1,46,3,4,1,2,4,1,0,928
5,108,0,1,47,3,5,3,2,4,1,0,1116
5,109,0,1,48,3,1,6,2,4,0,0,1009
5,110,0,1,49,3,1,2,2,7,1,0,660
5,111,0,1,0,4,4,4,3,3,1,1,3185
5,112,0,1,1,4,5,2,3,3,0,0,1113
5,113,0,1,2,4,4,2,3,3,1,0,840
5,114,0,1,3,4,3,3,3,2,0,0,1395
5,115,0,1,4,4,3,2,3,3,1,0,1606
5,116,0,1,5,4,4,4,3,2,0,0,1460
5,117,0,1,6,4,6,5,3,2,1,0,1587
5,118,0,1,7,4,5,6,3,2,1,0,2076
5,119,0,1,8,4,2,4,3,3,1,0,1315
5,120,0,1,9,4,6,3,3,2,1,0,1665
5,121,0,1,10,4,1,6,3,3,0,0,1864
5,122,0,1,11,4,1,1,3,3,1,0,1307
5,123,0,1,12,4,3,4,3,3,1,0,1725
5,124,0,1,13,4,2,3,3,3,1,0,1696
5,125,0,1,14,4,5,3,3,2,1,0,1628
5,126,0,1,15,4,4,5,3,2,1,0,1337
5,127,0,1,16,4,6,4,3,2,1,0,1336
5,128,0,1,17,4,1,6,3,2,1,0,2204
5,129,0,1,18,4,3,6,3,3,0,0,1983
5,130,0,1,19,4,2,6,3,3,0,0,1688
5,131,0,1,20,4,4,1,3,2,0,0,1389
5,132,0,1,21,4,5,4,3,3,0,0,1797
5,133,0,1,22,4,5,1,3,2,1,0,1283
5,134,0,1,23,4,5,1,3,2,1,0,930
5,135,0,1,24,4,3,3,3,3,1,0,4176
5,136,0,1,25,4,5,3,3,2,1,0,1477
5,137,0,1,26,4,2,1,3,3,1,0,1910
5,138,0,1,27,4,5,1,3,2,1,0,1369
5,139,0,1,28,4,6,3,3,2,1,0,1605
5,140,0,1,29,4,4,1,3,3,1,0,1441
5,141,0,1,30,4,5,6,3,2,1,0,1961
5,142,0,1,31,4,2,6,3,3,0,0,1935
5,143,0,1,32,4,4,3,3,2,0,0,1615
5,144,0,1,33,4,3,5,3,3,0,0,1330
5,145,0,1,34,4,1,5,3,2,1,0,2013
5,146,0,1,35,4,6,2,3,2,1,0,2360
5,147,0,1,36,4,5,6,3,2,1,0,1229
5,148,0,1,37,4,5,6,3,2,1,0,2039
5,149,0,1,38,4,2,6,3,3,0,0,1829
5,150,0,1,39,4,4,3,3,2,0,0,655
5,151,0,1,40,4,5,4,3,2,1,0,1166
5,152,0,1,41,4,1,5,3,2,1,0,1785
5,153,0,1,42,4,5,1,3,2,1,0,2127
5,154,0,1,43,4,1,2,3,2,0,0,1773
5,155,0,1,44,4,3,1,3,3,1,0,1735
5,156,0,1,45,4,1,1,3,3,1,0,1055
5,157,0,1,46,4,2,2,3,2,0,0,2057
5,158,0,1,47,4,4,5,3,3,0,0,5355
5,159,0,1,48,4,2,6,3,2,1,0,833
5,160,0,1,49,4,4,1,3,2,0,0,1752
5,161,0,1,50,4,6,5,3,3,0,0,1168
5,162,0,1,0,2,6,1,1,6,0,1,1703
5,163,0,1,1,2,6,1,1,8,1,0,1090
5,164,0,1,2,2,4,1,1,8,1,0,1544
5,165,0,1,3,2,1,1,1,8,0,0,1662
5,166,0,1,4,2,4,1,1,8,1,0,1219
5,167,0,1,5,2,4,1,1,8,1,0,1116
5,168,0,1,6,2,4,1,1,8,1,0,1584
5,169,0,1,7,2,1,1,1,6,1,0,1473
5,170,0,1,8,2,1,1,1,6,1,0,1129
5,171,0,1,9,2,4,1,1,8,1,0,1380
5,172,0,1,10,2,6,1,1,8,1,0,1280
5,173,0,1,11,2,6,1,1,8,1,0,1090
5,174,0,1,12,2,4,1,1,8,1,0,1695
5,175,0,1,13,2,4,1,1,8,1,0,1059
5,176,0,1,14,2,2,1,1,6,1,0,2243
5,177,0,1,15,2,1,1,1,6,1,0,1063
5,178,0,1,16,2,4,1,1,8,1,0,1505
5,179,0,1,17,2,4,1,1,8,1,0,917
5,180,0,1,18,2,5,1,1,8,1,0,1657
5,181,0,1,19,2,2,1,1,6,1,0,1741
5,182,0,1,20,2,2,1,1,6,1,0,968
5,183,0,1,21,2,6,1,1,8,1,0,1458
5,184,0,1,22,2,1,1,1,6,1,0,1703
5,185,0,1,23,2,2,1,1,6,1,0,1005
5,186,0,1,24,2,3,1,1,8,1,0,2427
5,187,0,1,25,2,2,1,1,8,0,0,916
5,188,0,1,26,2,4,1,1,8,1,0,1189
5,189,0,1,27,2,6,1,1,8,1,0,1023
5,190,0,1,28,2,4,1,1,8,1,0,1166
5,191,0,1,29,2,6,1,1,8,1,0,1162
5,192,0,1,30,2,3,1,1,6,0,0,1510
5,193,0,1,31,2,1,1,1,6,1,0,1074
5,194,0,1,32,2,1,1,1,6,1,0,1053
5,195,0,1,33,2,3,1,1,6,0,0,1955
5,196,0,1,34,2,3,1,1,8,1,0,1298
5,197,0,1,35,2,6,1,1,8,1,0,954
5,198,0,1,36,2,1,1,1,6,1,0,1557
5,199,0,1,37,2,4,1,1,8,1,0,1358
5,200,0,1,38,2,5,1,1,8,1,0,2130
5,201,0,1,39,2,4,1,1,8,1,0,1064
5,202,0,1,40,2,1,1,1,6,1,0,1543
5,203,0,1,41,2,5,1,1,8,1,0,1690
5,204,0,1,42,2,2,1,1,8,0,0,2788
5,205,0,1,43,2,3,1,1,8,1,0,1594
5,206,0,1,44,2,1,1,1,6,1,0,1364
5,207,0,1,45,2,4,1,1,8,1,0,1361
5,208,0,1,46,2,1,1,1,6,1,0,1385
5,209,0,1,47,2,3,1,1,8,1,0,1408
5,210,0,1,48,2,6,1,1,8,1,0,1077
5,211,0,1,49,2,2,1,1,6,1,0,2654
5,212,0,1,50,2,4,1,1,8,1,0,1389
5,213,0,1,0,1,1,3,4,1,0,1,2549
5,214,0,1,1,1,4,3,4,1,0,0,1823
5,215,0,1,2,1,6,3,4,5,0,0,1759
5,216,0,1,3,1,1,1,4,5,1,0,1764
5,217,0,1,4,1,2,5,4,5,1,0,2456
5,218,0,1,5,1,5,6,4,5,1,0,2339
5,219,0,1,6,1,4,5,4,5,1,0,1980
5,220,0,1,7,1,2,1,4,5,0,0,2628
5,221,0,1,8,1,6,3,4,1,0,0,1796
5,222,0,1,9,1,3,6,4,5,1,0,2120
5,223,0,1,10,1,1,6,4,5,0,0,2165
5,224,0,1,11,1,1,4,4,5,1,0,1810
5,225,0,1,12,1,6,3,4,5,1,0,2482
5,226,0,1,13,1,4,3,4,1,0,0,2593
5,227,0,1,14,1,2,6,4,1,1,0,1723
5,228,0,1,15,1,4,5,4,5,0,0,1526
5,229,0,1,16,1,2,1,4,5,1,0,1408
5,230,0,1,17,1,2,6,4,5,1,0,1153
5,231,0,1,18,1,3,1,4,5,0,0,2287
5,232,0,1,19,1,3,6,4,5,1,0,1260
5,233,0,1,20,1,5,6,4,5,1,0,2172
5,234,0,1,21,1,4,2,4,1,1,0,2324
5,235,0,1,22,1,1,2,4,5,1,0,3522
5,236,0,1,23,1,5,3,4,5,1,0,2472
5,237,0,1,24,1,1,4,4,5,1,0,2641
5,238,0,1,25,1,6,5,4,5,0,0,2937
5,239,0,1,26,1,5,5,4,5,1,0,2168
5,240,0,1,27,1,2,1,4,5,0,0,3887
5,241,0,1,28,1,1,2,4,5,1,0,1457
5,242,0,1,29,1,5,6,4,5,1,0,2263
5,243,0,1,30,1,6,5,4,5,0,0,2104
5,244,0,1,31,1,2,1,4,5,1,0,1489
5,245,0,1,32,1,4,4,4,1,0,0,2719
5,246,0,1,33,1,1,2,4,1,1,0,1480
5,247,0,1,34,1,1,5,4,1,0,0,2491
5,248,0,1,35,1,3,4,4,1,1,0,1650
5,249,0,1,36,1,2,5,4,5,0,0,2210
5,250,0,1,37,1,5,4,4,5,1,0,1771
5,251,0,1,38,1,5,3,4,5,0,0,2941
5,252,0,1,39,1,4,5,4,5,1,0,4845
5,253,0,1,40,1,6,3,4,5,1,0,1906
5,254,0,1,41,1,5,4,4,5,1,0,1105
5,255,0,1,42,1,5,2,4,5,1,0,839
5,256,0,1,43,1,4,3,4,5,0,0,1612
5,257,0,1,44,1,5,1,4,1,0,0,1769
5,258,0,1,45,1,1,2,4,1,0,0,1008
5,259,0,1,46,1,4,4,4,5,1,0,587
5,260,0,1,47,1,2,3,4,5,0,0,1674
5,261,0,1,48,1,3,2,4,1,0,0,673
5,262,0,1,49,1,3,4,4,5,0,0,976
5,263,0,1,50,1,6,5,4,1,0,0,815
5,264,0,1,51,1,5,3,4,5,0,0,3046
5,265,0,1,52,1,6,2,4,1,1,0,682
5,266,0,1,53,1,6,5,4,1,0,0,2761
5,267,0,1,54,1,6,4,4,5,0,0,696
5,268,0,1,55,1,3,3,4,1,1,0,1222
5,269,0,1,56,1,1,4,4,5,1,0,1067
5,270,0,1,0,3,6,3,2,4,1,1,2071
5,271,0,1,1,3,5,2,2,4,1,0,2956
5,272,0,1,2,3,6,1,2,4,1,0,2607
5,273,0,1,3,3,1,4,2,7,1,0,3108
5,274,0,1,4,3,3,4,2,7,1,0,2519
5,275,0,1,5,3,2,1,2,7,1,0,5143
5,276,0,1,6,3,1,3,2,7,1,0,2416
5,277,0,1,7,3,4,1,2,4,1,0,2857
5,278,0,1,8,3,3,1,2,4,0,0,2032
5,279,0,1,9,3,1,2,2,7,1,0,3837
5,280,0,1,10,3,2,3,2,7,1,0,2991
5,281,0,1,11,3,1,2,2,7,1,0,1440
5,282,0,1,12,3,2,3,2,7,1,0,1552
5,283,0,1,13,3,6,4,2,4,1,0,2678
5,284,0,1,14,3,5,3,2,4,1,0,2410
5,285,0,1,15,3,6,3,2,4,1,0,2398
5,286,0,1,16,3,6,2,2,4,1,0,2426
5,287,0,1,17,3,2,5,2,7,1,0,4687
5,288,0,1,18,3,5,1,2,4,1,0,2871
5,289,0,1,19,3,5,4,2,4,1,0,2514
5,290,0,1,20,3,5,6,2,4,1,0,2492
5,291,0,1,21,3,2,3,2,7,1,0,4326
5,292,0,1,22,3,1,4,2,7,1,0,2437
5,293,0,1,23,3,6,4,2,4,1,0,2972
5,294,0,1,24,3,2,6,2,7,1,0,4738
5,295,0,1,25,3,4,5,2,4,1,0,3095
5,296,0,1,26,3,4,3,2,4,1,0,2569
5,297,0,1,27,3,5,2,2,4,1,0,2738
5,298,0,1,28,3,2,1,2,4,0,0,2801
5,299,0,1,29,3,4,5,2,7,0,0,2373
5,300,0,1,30,3,2,4,2,7,1,0,2116
5,301,0,1,31,3,3,6,2,7,1,0,2741
5,302,0,1,32,3,1,3,2,7,1,0,2491
5,303,0,1,33,3,4,4,2,4,1,0,2910
5,304,0,1,34,3,4,1,2,4,1,0,2508
5,305,0,1,35,3,2,2,2,7,1,0,3640
5,306,0,1,36,3,1,5,2,7,1,0,2533
5,307,0,1,37,3,3,2,2,7,1,0,3268
5,308,0,1,38,3,6,3,2,4,1,0,2201
5,309,0,1,39,3,1,2,2,7,1,0,4467
5,310,0,1,40,3,3,5,2,7,1,0,2667
5,311,0,2,0,2,3,1,1,6,0,1,3778
5,312,0,2,1,2,1,1,1,6,1,0,2249
5,313,0,2,2,2,4,1,1,8,1,0,3059
5,314,0,2,3,2,5,1,1,8,1,0,2591
5,315,0,2,4,2,5,1,1,8,1,0,1446
5,316,0,2,5,2,4,1,1,8,1,0,1231
5,317,0,2,6,2,5,1,1,8,1,0,1098
5,318,0,2,7,2,1,1,1,6,1,0,1791
5,319,0,2,8,2,1,1,1,6,1,0,1078
5,320,0,2,9,2,4,1,1,8,1,0,1354
5,321,0,2,10,2,1,1,1,6,1,0,1447
5,322,0,2,11,2,3,1,1,8,1,0,1798
5,323,0,2,12,2,2,1,1,8,0,0,2066
5,324,0,2,13,2,4,1,1,8,1,0,2001
5,325,0,2,14,2,4,1,1,8,1,0,1057
5,326,0,2,0,4,5,5,3,2,1,1,3391
5,327,0,2,1,4,1,2,3,2,0,0,2527
5,328,0,2,2,4,2,3,3,3,1,0,3362
5,329,0,2,3,4,3,5,3,3,0,0,2871
5,330,0,2,4,4,3,6,3,3,0,0,2273
5,331,0,2,5,4,4,3,3,2,0,0,2788
5,332,0,2,6,4,1,5,3,2,1,0,2366
5,333,0,2,7,4,4,3,3,2,0,0,1442
5,334,0,2,8,4,3,6,3,2,1,0,1179
5,335,0,2,9,4,6,5,3,2,1,0,2789
5,336,0,2,10,4,3,6,3,3,0,0,1958
5,337,0,2,11,4,2,4,3,3,1,0,2428
5,338,0,2,12,4,4,1,3,2,0,0,5040
5,339,0,2,13,4,4,6,3,2,1,0,2249
5,340,0,2,14,4,2,1,3,3,1,0,3463
5,341,0,2,0,3,4,5,2,4,1,1,2427
5,342,0,2,1,3,1,5,2,7,1,0,2218
5,343,0,2,2,3,2,6,2,7,1,0,3158
5,344,0,2,3,3,1,1,2,7,1,0,2693
5,345,0,2,4,3,2,2,2,7,1,0,3092
5,346,0,2,5,3,3,4,2,4,0,0,2598
5,347,0,2,6,3,1,5,2,7,1,0,1673
5,348,0,2,7,3,4,5,2,4,1,0,1294
5,349,0,2,8,3,3,6,2,4,0,0,2446
5,350,0,2,9,3,4,5,2,4,1,0,1248
5,351,0,2,10,3,5,6,2,4,1,0,4546
5,352,0,2,11,3,6,3,2,4,1,0,2611
5,353,0,2,12,3,6,3,2,4,1,0,1520
5,354,0,2,13,3,6,1,2,4,1,0,3460
5,355,0,2,14,3,2,2,2,7,1,0,3316
5,356,0,2,0,1,2,4,4,5,1,1,2780
5,357,0,2,1,1,2,5,4,5,0,0,2039
5,358,0,2,2,1,2,5,4,1,1,0,2955
5,359,0,2,3,1,3,3,4,5,0,0,3074
5,360,0,2,4,1,2,1,4,5,0,0,2380
5,361,0,2,5,1,3,2,4,5,0,0,2221
5,362,0,2,6,1,2,4,4,5,0,0,1381
5,363,0,2,7,1,6,1,4,5,1,0,2660
5,364,0,2,8,1,6,5,4,5,1,0,2680
5,365,0,2,9,1,6,1,4,5,1,0,1832
5,366,0,2,10,1,2,3,4,1,1,0,2976
5,367,0,2,11,1,3,1,4,1,1,0,3999
5,368,0,2,12,1,6,5,4,5,0,0,2364
5,369,0,2,13,1,1,5,4,1,1,0,2689
5,370,0,2,14,1,6,3,4,1,0,0,3530
6,1,1,0,0,2,4,1,1,8,1,1,1983
6,2,1,0,1,2,2,1,1,8,0,0,1401
6,3,1,0,2,2,3,1,1,6,0,0,1700
6,4,1,0,3,2,6,1,1,8,1,0,875
6,5,1,0,4,2,3,1,1,8,1,0,1175
6,6,1,0,5,2,1,1,1,8,0,0,1392
6,7,1,0,6,2,5,1,1,8,1,0,2759
6,8,1,0,7,2,2,1,1,6,1,0,1516
6,9,1,0,8,2,1,1,1,6,1,0,1128
6,10,1,0,9,2,2,1,1,6,1,0,2330
6,11,1,0,10,2,4,1,1,6,0,0,1193
6,12,1,0,11,2,5,1,1,8,1,0,1158
6,13,1,0,12,2,5,1,1,8,1,0,882
6,14,1,0,13,2,3,1,1,6,0,0,1543
6,15,1,0,14,2,2,1,1,6,1,0,1458
6,16,1,0,0,1,5,1,4,1,1,1,1313
6,17,1,0,1,1,3,4,4,1,1,0,1105
6,18,1,0,2,1,6,6,4,1,1,0,1136
6,19,1,0,3,1,5,5,4,1,1,0,1025
6,20,1,0,4,1,5,2,4,1,1,0,1059
6,21,1,0,5,1,1,6,4,1,1,0,945
6,22,1,0,6,1,6,1,4,1,0,0,898
6,23,1,0,7,1,3,1,4,1,1,0,1259
6,24,1,0,8,1,1,2,4,1,0,0,902
6,25,1,0,9,1,5,5,4,1,0,0,1109
6,26,1,0,10,1,4,1,4,5,0,0,748
6,27,1,0,11,1,4,2,4,1,0,0,1078
6,28,1,0,12,1,3,3,4,1,0,0,837
6,29,1,0,13,1,5,1,4,5,1,0,1350
6,30,1,0,14,1,3,4,4,5,0,0,1292
6,31,1,0,0,4,6,4,2,3,0,1,1726
6,32,1,0,1,4,3,3,2,2,0,0,659
6,33,1,0,2,4,2,4,2,3,1,0,694
6,34,1,0,3,4,5,6,2,3,0,0,1065
6,35,1,0,4,4,6,1,2,2,1,0,973
6,36,1,0,5,4,4,5,2,2,1,0,1073
6,37,1,0,6,4,6,4,2,2,1,0,1026
6,38,1,0,7,4,3,1,2,2,0,0,786
6,39,1,0,8,4,3,6,2,3,1,0,1941
6,40,1,0,9,4,5,1,2,2,1,0,1219
6,41,1,0,10,4,4,6,2,3,0,0,1096
6,42,1,0,11,4,1,3,2,2,0,0,1232
6,43,1,0,12,4,4,6,2,3,0,0,971
6,44,1,0,13,4,1,4,2,2,0,0,1590
6,45,1,0,14,4,4,2,2,3,0,0,1706
6,46,1,0,0,3,1,1,3,7,1,1,1031
6,47,1,0,1,3,5,1,3,7,0,0,951
6,48,1,0,2,3,3,2,3,4,0,0,908
6,49,1,0,3,3,3,5,3,7,0,0,1264
6,50,1,0,4,3,4,4,3,4,0,0,1052
6,51,1,0,5,3,4,1,3,7,1,0,649
6,52,1,0,6,3,5,3,3,7,0,0,1067
6,53,1,0,7,3,5,5,3,4,1,0,1407
6,54,1,0,8,3,5,4,3,4,1,0,1302
6,55,1,0,9,3,5,3,3,4,1,0,838
6,56,1,0,10,3,6,6,3,4,1,0,1028
6,57,1,0,11,3,5,1,3,4,1,0,752
6,58,1,0,12,3,2,4,3,4,0,0,888
6,59,1,0,13,3,6,6,3,7,0,0,931
6,60,1,0,14,3,2,1,3,7,1,0,1378
6,61,1,1,0,2,3,1,1,8,1,1,3680
6,62,1,1,1,2,2,1,1,8,0,0,1112
6,63,1,1,2,2,3,1,1,6,0,0,1307
6,64,1,1,3,2,4,1,1,8,1,0,1242
6,65,1,1,4,2,1,1,1,8,0,0,927
6,66,1,1,5,2,6,1,1,6,0,0,1512
6,67,1,1,6,2,3,1,1,8,1,0,561
6,68,1,1,7,2,5,1,1,8,1,0,879
6,69,1,1,8,2,2,1,1,8,0,0,704
6,70,1,1,9,2,3,1,1,6,0,0,1281
6,71,1,1,10,2,1,1,1,8,0,0,1774
6,72,1,1,11,2,1,1,1,6,1,0,1053
6,73,1,1,12,2,2,1,1,8,0,0,1643
6,74,1,1,13,2,6,1,1,6,0,0,1357
6,75,1,1,14,2,5,1,1,8,1,0,1082
6,76,1,1,15,2,2,1,1,6,1,0,1132
6,77,1,1,16,2,3,1,1,8,1,0,1492
6,78,1,1,17,2,4,1,1,8,1,0,984
6,79,1,1,18,2,5,1,1,8,1,0,942
6,80,1,1,19,2,6,1,1,8,1,0,1053
6,81,1,1,20,2,5,1,1,8,1,0,1112
6,82,1,1,21,2,1,1,1,6,1,0,1147
6,83,1,1,22,2,6,1,1,8,1,0,1065
6,84,1,1,23,2,4,1,1,6,0,0,1329
6,85,1,1,24,2,5,1,1,8,1,0,1453
6,86,1,1,25,2,6,1,1,8,1,0,1229
6,87,1,1,26,2,3,1,1,6,0,0,1026
6,88,1,1,27,2,1,1,1,6,1,0,1074
6,89,1,1,28,2,6,1,1,8,1,0,898
6,90,1,1,29,2,1,1,1,6,1,0,940
6,91,1,1,30,2,2,1,1,6,1,0,1130
6,92,1,1,31,2,6,1,1,8,1,0,1041
6,93,1,1,32,2,6,1,1,8,1,0,961
6,94,1,1,33,2,1,1,1,6,1,0,1058
6,95,1,1,34,2,1,1,1,6,1,0,1011
6,96,1,1,35,2,1,1,1,6,1,0,1070
6,97,1,1,36,2,6,1,1,8,1,0,915
6,98,1,1,37,2,6,1,1,8,1,0,834
6,99,1,1,38,2,5,1,1,8,1,0,3676
6,100,1,1,39,2,3,1,1,6,0,0,1262
6,101,1,1,40,2,3,1,1,6,0,0,1019
6,102,1,1,41,2,6,1,1,8,1,0,963
6,103,1,1,42,2,6,1,1,8,1,0,902
6,104,1,1,43,2,2,1,1,6,1,0,1578
6,105,1,1,44,2,2,1,1,6,1,0,896
6,106,1,1,45,2,2,1,1,6,1,0,870
6,107,1,1,46,2,3,1,1,8,1,0,1139
6,108,1,1,47,2,4,1,1,8,1,0,932
6,109,1,1,48,2,4,1,1,8,1,0,1003
6,110,1,1,49,2,5,1,1,8,1,0,1106
6,111,1,1,50,2,6,1,1,8,1,0,1111
6,112,1,1,51,2,6,1,1,8,1,0,811
6,113,1,1,52,2,3,1,1,6,0,0,1126
6,114,1,1,53,2,5,1,1,8,1,0,1147
6,115,1,1,54,2,6,1,1,8,1,0,2405
6,116,1,1,55,2,2,1,1,6,1,0,1172
6,117,1,1,56,2,4,1,1,8,1,0,842
6,118,1,1,57,2,3,1,1,8,1,0,983
6,119,1,1,58,2,3,1,1,8,1,0,954
6,120,1,1,59,2,6,1,1,8,1,0,950
6,121,1,1,60,2,2,1,1,6,1,0,959
6,122,1,1,61,2,2,1,1,6,1,0,1139
6,123,1,1,62,2,1,1,1,8,0,0,621
6,124,1,1,63,2,3,1,1,8,1,0,978
6,125,1,1,64,2,3,1,1,8,1,0,1018
6,126,1,1,65,2,1,1,1,6,1,0,1076
6,127,1,1,66,2,2,1,1,6,1,0,1455
6,128,1,1,67,2,5,1,1,8,1,0,1045
6,129,1,1,68,2,3,1,1,8,1,0,1392
6,130,1,1,69,2,1,1,1,6,1,0,862
6,131,1,1,70,2,6,1,1,8,1,0,1235
6,132,1,1,71,2,5,1,1,8,1,0,1101
6,133,1,1,72,2,5,1,1,8,1,0,930
6,134,1,1,73,2,3,1,1,6,0,0,930
6,135,1,1,74,2,3,1,1,8,1,0,1315
6,136,1,1,75,2,5,1,1,8,1,0,926
6,137,1,1,76,2,5,1,1,8,1,0,839
6,138,1,1,77,2,6,1,1,8,1,0,1210
6,139,1,1,78,2,4,1,1,8,1,0,1006
6,140,1,1,79,2,1,1,1,6,1,0,1171
6,141,1,1,80,2,6,1,1,8,1,0,973
6,142,1,1,81,2,4,1,1,8,1,0,774
6,143,1,1,82,2,3,1,1,8,1,0,1019
6,144,1,1,83,2,4,1,1,8,1,0,928
6,145,1,1,84,2,4,1,1,8,1,0,1074
6,146,1,1,85,2,6,1,1,8,1,0,1223
6,147,1,1,86,2,3,1,1,8,1,0,1860
6,148,1,1,87,2,5,1,1,8,1,0,998
6,149,1,1,88,2,3,1,1,8,1,0,949
6,150,1,1,89,2,5,1,1,8,1,0,2540
6,151,1,1,90,2,3,1,1,8,1,0,1206
6,152,1,1,91,2,4,1,1,8,1,0,1107
6,153,1,1,92,2,3,1,1,8,1,0,649
6,154,1,1,93,2,4,1,1,8,1,0,1358
6,155,1,1,94,2,2,1,1,8,0,0,768
6,156,1,1,95,2,1,1,1,6,1,0,998
6,157,1,1,96,2,3,1,1,8,1,0,974
6,158,1,1,97,2,6,1,1,8,1,0,1030
6,159,1,1,98,2,2,1,1,6,1,0,1261
6,160,1,1,99,2,5,1,1,8,1,0,964
6,161,1,1,100,2,3,1,1,8,1,0,1140
6,162,1,1,0,1,1,4,4,1,1,1,1410
6,163,1,1,1,1,4,6,4,1,0,0,1050
6,164,1,1,2,1,4,6,4,5,0,0,1533
6,165,1,1,3,1,2,4,4,1,0,0,1547
6,166,1,1,4,1,4,1,4,1,0,0,895
6,167,1,1,5,1,1,2,4,5,0,0,1762
6,168,1,1,6,1,4,5,4,1,1,0,801
6,169,1,1,7,1,3,1,4,5,1,0,1275
6,170,1,1,8,1,1,3,4,1,0,0,1202
6,171,1,1,9,1,5,5,4,5,0,0,728
6,172,1,1,10,1,2,5,4,5,0,0,656
6,173,1,1,11,1,3,5,4,1,1,0,1040
6,174,1,1,12,1,2,4,4,1,1,0,647
6,175,1,1,13,1,3,1,4,5,1,0,1058
6,176,1,1,14,1,1,1,4,5,1,0,946
6,177,1,1,15,1,5,1,4,5,1,0,1182
6,178,1,1,16,1,3,6,4,1,0,0,1018
6,179,1,1,17,1,6,3,4,5,1,0,900
6,180,1,1,18,1,3,2,4,5,1,0,682
6,181,1,1,19,1,3,2,4,5,0,0,547
6,182,1,1,20,1,2,3,4,5,1,0,634
6,183,1,1,21,1,5,5,4,5,0,0,1517
6,184,1,1,22,1,6,5,4,1,0,0,1082
6,185,1,1,0,3,4,6,3,7,0,1,2166
6,186,1,1,1,3,4,5,3,4,1,0,1645
6,187,1,1,2,3,3,5,3,4,1,0,943
6,188,1,1,3,3,1,3,3,4,0,0,1059
6,189,1,1,4,3,5,1,3,7,0,0,1035
6,190,1,1,5,3,6,2,3,4,1,0,881
6,191,1,1,6,3,2,6,3,4,1,0,946
6,192,1,1,7,3,1,3,3,7,1,0,875
6,193,1,1,8,3,1,5,3,4,1,0,1189
6,194,1,1,9,3,3,6,3,4,1,0,1069
6,195,1,1,10,3,3,6,3,4,1,0,571
6,196,1,1,11,3,6,1,3,4,1,0,1390
6,197,1,1,12,3,2,3,3,7,1,0,1035
6,198,1,1,13,3,3,1,3,4,0,0,1153
6,199,1,1,14,3,4,6,3,4,1,0,1016
6,200,1,1,15,3,3,6,3,4,1,0,651
6,201,1,1,16,3,5,5,3,4,1,0,1137
6,202,1,1,17,3,5,6,3,4,1,0,628
6,203,1,1,18,3,2,1,3,4,0,0,1527
6,204,1,1,19,3,1,1,3,7,1,0,1066
6,205,1,1,20,3,5,6,3,4,1,0,925
6,206,1,1,21,3,2,4,3,4,0,0,765
6,207,1,1,22,3,1,2,3,7,1,0,1675
6,208,1,1,23,3,6,6,3,4,1,0,1253
6,209,1,1,24,3,1,3,3,7,1,0,1597
6,210,1,1,25,3,2,4,3,4,0,0,1065
6,211,1,1,26,3,2,5,3,4,1,0,909
6,212,1,1,27,3,4,4,3,4,0,0,1106
6,213,1,1,28,3,2,3,3,7,1,0,1123
6,214,1,1,29,3,4,3,3,7,1,0,1301
6,215,1,1,30,3,4,4,3,7,1,0,975
6,216,1,1,31,3,4,3,3,7,1,0,895
6,217,1,1,32,3,5,6,3,4,1,0,1125
6,218,1,1,33,3,3,5,3,7,0,0,1556
6,219,1,1,34,3,3,2,3,4,0,0,1186
6,220,1,1,35,3,5,5,3,4,1,0,1046
6,221,1,1,36,3,5,1,3,7,0,0,1399
6,222,1,1,37,3,1,3,3,7,1,0,1133
6,223,1,1,38,3,1,5,3,7,0,0,1401
6,224,1,1,39,3,6,2,3,4,1,0,1167
6,225,1,1,40,3,1,2,3,7,1,0,979
6,226,1,1,41,3,3,2,3,7,1,0,921
6,227,1,1,42,3,2,6,3,4,1,0,1016
6,228,1,1,43,3,6,4,3,4,1,0,1093
6,229,1,1,44,3,3,1,3,4,0,0,2160
6,230,1,1,45,3,2,5,3,4,1,0,857
6,231,1,1,46,3,5,2,3,4,1,0,1112
6,232,1,1,47,3,2,5,3,4,1,0,1266
6,233,1,1,48,3,2,5,3,4,1,0,1106
6,234,1,1,49,3,1,1,3,7,1,0,1192
6,235,1,1,50,3,2,6,3,4,1,0,1823
6,236,1,1,51,3,3,1,3,7,1,0,1111
6,237,1,1,52,3,2,6,3,4,1,0,1200
6,238,1,1,53,3,2,2,3,7,1,0,1266
6,239,1,1,54,3,2,5,3,4,1,0,1083
6,240,1,1,55,3,4,2,3,4,0,0,1446
6,241,1,1,56,3,3,3,3,7,1,0,1247
6,242,1,1,57,3,2,2,3,7,1,0,1948
6,243,1,1,58,3,3,3,3,7,1,0,1629
6,244,1,1,59,3,3,5,3,4,1,0,1185
6,245,1,1,60,3,6,3,3,4,1,0,1981
6,246,1,1,61,3,3,1,3,7,1,0,945
6,247,1,1,62,3,6,1,3,4,1,0,1753
6,248,1,1,63,3,2,3,3,7,1,0,998
6,249,1,1,0,4,5,3,2,2,1,1,1719
6,250,1,1,1,4,1,4,2,2,0,0,2076
6,251,1,1,2,4,1,6,2,3,1,0,1062
6,252,1,1,3,4,4,4,2,2,1,0,1062
6,253,1,1,4,4,5,5,2,2,1,0,815
6,254,1,1,5,4,2,5,2,3,1,0,876
6,255,1,1,6,4,6,4,2,2,1,0,1358
6,256,1,1,7,4,1,5,2,3,1,0,1623
6,257,1,1,8,4,2,2,2,3,1,0,1289
6,258,1,1,9,4,4,4,2,2,1,0,1023
6,259,1,1,10,4,4,2,2,2,1,0,1117
6,260,1,1,11,4,4,1,2,2,1,0,1384
6,261,1,1,12,4,2,6,2,3,1,0,1162
6,262,1,1,13,4,3,4,2,2,0,0,1560
6,263,1,1,14,4,6,4,2,3,0,0,842
6,264,1,1,15,4,1,4,2,2,0,0,1001
6,265,1,1,16,4,4,6,2,2,1,0,1021
6,266,1,1,17,4,4,5,2,2,1,0,928
6,267,1,1,18,4,3,2,2,2,0,0,883
6,268,1,1,19,4,5,5,2,3,0,0,959
6,269,1,1,20,4,3,6,2,3,1,0,1336
6,270,1,1,21,4,1,6,2,3,1,0,678
6,271,1,1,22,4,3,5,2,3,1,0,938
6,272,1,1,23,4,6,6,2,2,1,0,1252
6,273,1,1,24,4,4,5,2,2,1,0,1029
6,274,1,1,25,4,4,1,2,2,1,0,942
6,275,1,1,26,4,4,1,2,2,1,0,662
6,276,1,1,27,4,1,5,2,3,1,0,999
6,277,1,1,28,4,1,6,2,3,1,0,1239
6,278,1,1,29,4,3,2,2,3,1,0,1198
6,279,1,1,30,4,4,1,2,2,1,0,1210
6,280,1,1,31,4,1,3,2,3,1,0,1486
6,281,1,1,32,4,3,1,2,3,1,0,3274
6,282,1,1,33,4,4,6,2,2,1,0,1397
6,283,1,1,34,4,4,3,2,2,1,0,1196
6,284,1,1,35,4,5,2,2,2,1,0,1282
6,285,1,1,36,4,4,2,2,2,1,0,992
6,286,1,1,37,4,2,3,2,3,1,0,1078
6,287,1,1,38,4,6,3,2,2,1,0,1800
6,288,1,1,39,4,5,6,2,2,1,0,1365
6,289,1,1,40,4,6,1,2,2,1,0,790
6,290,1,1,41,4,4,1,2,2,1,0,739
6,291,1,1,42,4,3,3,2,2,0,0,1033
6,292,1,1,43,4,2,2,2,3,1,0,2118
6,293,1,1,0,1,5,4,4,1,1,1,1807
6,294,1,1,1,1,1,2,4,5,1,0,1241
6,295,1,1,2,1,3,1,4,5,0,0,796
6,296,1,1,3,1,2,4,4,1,0,0,1164
6,297,1,1,4,1,2,2,4,1,0,0,1409
6,298,1,1,5,1,3,6,4,5,1,0,1044
6,299,1,1,6,1,6,4,4,5,1,0,847
6,300,1,1,7,1,3,3,4,5,0,0,1082
6,301,1,1,8,1,6,5,4,5,0,0,974
6,302,1,1,9,1,3,4,4,1,1,0,596
6,303,1,1,0,4,2,2,2,3,1,1,1279
6,304,1,1,1,4,1,6,2,3,1,0,1189
6,305,1,1,2,4,3,6,2,3,1,0,870
6,306,1,1,3,4,6,1,2,2,1,0,1427
6,307,1,1,4,4,1,3,2,2,0,0,1450
6,308,1,1,0,2,2,1,1,6,1,1,1731
6,309,1,1,1,2,1,1,1,6,1,0,1277
6,310,1,1,2,2,4,1,1,8,1,0,1322
6,311,1,2,0,3,1,2,3,4,0,1,1857
6,312,1,2,1,3,3,4,3,4,0,0,1082
6,313,1,2,2,3,4,2,3,7,1,0,1045
6,314,1,2,3,3,4,5,3,7,0,0,1190
6,315,1,2,4,3,1,5,3,4,1,0,834
6,316,1,2,5,3,4,1,3,4,0,0,1129
6,317,1,2,6,3,4,5,3,4,1,0,722
6,318,1,2,7,3,5,1,3,4,1,0,1369
6,319,1,2,8,3,4,6,3,4,1,0,892
6,320,1,2,9,3,4,3,3,7,1,0,1329
6,321,1,2,10,3,2,6,3,4,1,0,931
6,322,1,2,11,3,6,2,3,4,1,0,992
6,323,1,2,12,3,4,5,3,4,1,0,846
6,324,1,2,13,3,2,6,3,4,1,0,767
6,325,1,2,14,3,3,3,3,7,1,0,1099
6,326,1,2,0,2,6,1,1,8,1,1,1361
6,327,1,2,1,2,6,1,1,8,1,0,1192
6,328,1,2,2,2,2,1,1,6,1,0,1029
6,329,1,2,3,2,1,1,1,6,1,0,792
6,330,1,2,4,2,4,1,1,8,1,0,1008
6,331,1,2,5,2,6,1,1,8,1,0,1165
6,332,1,2,6,2,1,1,1,6,1,0,912
6,333,1,2,7,2,5,1,1,8,1,0,922
6,334,1,2,8,2,6,1,1,8,1,0,788
6,335,1,2,9,2,3,1,1,6,0,0,928
6,336,1,2,10,2,2,1,1,6,1,0,864
6,337,1,2,11,2,5,1,1,8,1,0,1055
6,338,1,2,12,2,1,1,1,6,1,0,1102
6,339,1,2,13,2,2,1,1,6,1,0,1339
6,340,1,2,14,2,3,1,1,8,1,0,959
6,341,1,2,0,1,1,4,4,1,1,1,1353
6,342,1,2,1,1,5,3,4,5,1,0,1052
6,343,1,2,2,1,4,3,4,1,0,0,1165
6,344,1,2,3,1,4,5,4,5,1,0,958
6,345,1,2,4,1,4,3,4,5,1,0,1018
6,346,1,2,5,1,4,2,4,1,0,0,874
6,347,1,2,6,1,6,3,4,1,1,0,547
6,348,1,2,7,1,5,5,4,1,1,0,688
6,349,1,2,8,1,2,2,4,1,0,0,649
6,350,1,2,9,1,2,6,4,5,0,0,583
6,351,1,2,10,1,5,6,4,1,0,0,411
6,352,1,2,11,1,3,6,4,1,1,0,748
6,353,1,2,12,1,4,2,4,5,1,0,1045
6,354,1,2,13,1,4,5,4,1,0,0,954
6,355,1,2,14,1,2,6,4,5,0,0,708
6,356,1,2,0,4,1,3,2,3,1,1,1312
6,357,1,2,1,4,4,5,2,2,1,0,993
6,358,1,2,2,4,6,3,2,2,1,0,819
6,359,1,2,3,4,5,2,2,2,1,0,831
6,360,1,2,4,4,6,3,2,2,1,0,678
6,361,1,2,5,4,3,3,2,3,1,0,1438
6,362,1,2,6,4,3,6,2,3,1,0,918
6,363,1,2,7,4,4,6,2,2,1,0,1006
6,364,1,2,8,4,1,5,2,3,1,0,910
6,365,1,2,9,4,2,6,2,3,1,0,1285
6,366,1,2,10,4,6,4,2,2,1,0,982
6,367,1,2,11,4,1,4,2,3,1,0,903
6,368,1,2,12,4,1,4,2,3,1,0,1179
6,369,1,2,13,4,2,5,2,3,1,0,1087
6,370,1,2,14,4,5,3,2,2,1,0,1035
7,1,0,0,0,3,1,1,1,7,1,1,2121
7,2,0,0,1,3,5,1,1,7,0,0,2415
7,3,0,0,2,3,3,1,1,4,1,0,950
7,4,0,0,3,3,3,1,1,4,1,0,1088
7,5,0,0,4,3,2,1,1,4,0,0,1156
7,6,0,0,5,3,4,1,1,7,0,0,3146
7,7,0,0,6,3,2,1,1,4,0,0,720
7,8,0,0,7,3,1,1,1,7,1,0,6014
7,9,0,0,8,3,2,1,1,7,1,0,1329
7,10,0,0,9,3,3,1,1,7,0,0,670
7,11,0,0,10,3,6,1,1,7,0,0,473
7,12,0,0,11,3,3,1,1,4,1,0,101
7,13,0,0,12,3,2,1,1,4,0,0,817
7,14,0,0,13,3,5,1,1,7,0,0,874
7,15,0,0,14,3,3,1,1,4,1,0,870
7,16,0,0,0,2,2,6,3,2,1,1,4888
7,17,0,0,1,2,5,6,3,2,1,0,1143
7,18,0,0,2,2,3,3,3,3,1,0,1441
7,19,0,0,3,2,5,1,3,2,1,0,1934
7,20,0,0,4,2,5,5,3,2,1,0,1116
7,21,0,0,5,2,6,2,3,3,0,0,7785
7,22,0,0,6,2,3,1,3,2,0,0,1429
7,23,0,0,7,2,6,4,3,2,1,0,1182
7,24,0,0,8,2,3,2,3,3,1,0,1267
7,25,0,0,9,2,6,5,3,2,1,0,1186
7,26,0,0,10,2,5,6,3,2,1,0,1187
7,27,0,0,11,2,2,5,3,2,1,0,859
7,28,0,0,12,2,1,2,3,3,1,0,1176
7,29,0,0,13,2,4,6,3,2,1,0,1108
7,30,0,0,14,2,5,5,3,3,0,0,1494
7,31,0,0,0,4,5,4,2,5,1,1,1924
7,32,0,0,1,4,6,3,2,1,0,0,1386
7,33,0,0,2,4,6,1,2,1,0,0,1579
7,34,0,0,3,4,2,4,2,1,1,0,1535
7,35,0,0,4,4,6,5,2,5,1,0,1009
7,36,0,0,5,4,1,4,2,1,1,0,1024
7,37,0,0,6,4,4,1,2,5,1,0,1111
7,38,0,0,7,4,2,4,2,1,1,0,720
7,39,0,0,8,4,3,1,2,5,0,0,1709
7,40,0,0,9,4,6,5,2,5,1,0,66608
7,41,0,0,10,4,4,6,2,5,1,0,1129
7,42,0,0,11,4,5,5,2,5,1,0,14962
7,43,0,0,12,4,3,1,2,5,0,0,759
7,44,0,0,13,4,4,4,2,5,1,0,1068
7,45,0,0,14,4,5,2,2,5,1,0,846
7,46,0,0,0,1,4,2,4,6,0,1,134575
7,47,0,0,1,1,2,4,4,6,1,0,1295
7,48,0,0,2,1,4,4,4,8,1,0,879
7,49,0,0,3,1,4,2,4,8,1,0,594
7,50,0,0,4,1,2,4,4,6,1,0,667
7,51,0,0,5,1,5,6,4,6,1,0,899
7,52,0,0,6,1,2,2,4,6,1,0,2386
7,53,0,0,7,1,4,5,4,8,0,0,1150
7,54,0,0,8,1,5,6,4,6,1,0,1166
7,55,0,0,9,1,2,5,4,6,1,0,1661
7,56,0,0,10,1,4,3,4,8,0,0,867
7,57,0,0,11,1,5,6,4,6,1,0,1909
7,58,0,0,12,1,6,3,4,8,0,0,1280
7,59,0,0,13,1,5,3,4,6,0,0,1138
7,60,0,0,14,1,5,4,4,6,0,0,1671
7,61,0,1,0,4,5,4,2,5,1,1,1372
7,62,0,1,1,4,1,1,2,1,1,0,866
7,63,0,1,2,4,6,4,2,5,1,0,1186
7,64,0,1,3,4,6,6,2,5,1,0,1064
7,65,0,1,4,4,6,5,2,5,1,0,722
7,66,0,1,5,4,5,5,2,5,1,0,764
7,67,0,1,6,4,3,6,2,1,1,0,1341
7,68,0,1,7,4,4,3,2,5,1,0,953
7,69,0,1,8,4,4,3,2,5,1,0,588
7,70,0,1,9,4,5,2,2,5,1,0,1174
7,71,0,1,10,4,3,5,2,5,0,0,792
7,72,0,1,11,4,1,3,2,1,1,0,1237
7,73,0,1,12,4,1,4,2,1,1,0,1015
7,74,0,1,13,4,6,3,2,5,1,0,916
7,75,0,1,14,4,5,3,2,5,1,0,992
7,76,0,1,15,4,6,2,2,5,1,0,796
7,77,0,1,16,4,3,4,2,1,1,0,930
7,78,0,1,17,4,4,1,2,5,1,0,1188
7,79,0,1,18,4,5,2,2,5,1,0,1824
7,80,0,1,19,4,3,1,2,1,1,0,1096
7,81,0,1,20,4,2,3,2,1,1,0,747
7,82,0,1,21,4,1,1,2,1,1,0,1328
7,83,0,1,22,4,5,5,2,5,1,0,1098
7,84,0,1,23,4,1,6,2,1,1,0,1254
7,85,0,1,24,4,5,2,2,5,1,0,1231
7,86,0,1,25,4,2,6,2,1,1,0,1521
7,87,0,1,26,4,6,5,2,5,1,0,1013
7,88,0,1,27,4,3,5,2,1,1,0,1190
7,89,0,1,28,4,4,5,2,5,1,0,1434
7,90,0,1,29,4,5,2,2,5,1,0,596
7,91,0,1,30,4,1,1,2,1,1,0,1965
7,92,0,1,31,4,1,3,2,1,1,0,842
7,93,0,1,32,4,6,2,2,5,1,0,1238
7,94,0,1,33,4,2,2,2,1,1,0,1129
7,95,0,1,34,4,3,1,2,1,1,0,1564
7,96,0,1,35,4,1,1,2,1,1,0,933
7,97,0,1,36,4,5,4,2,5,1,0,1227
7,98,0,1,37,4,3,2,2,5,0,0,986
7,99,0,1,38,4,6,5,2,5,1,0,595
7,100,0,1,39,4,4,2,2,5,1,0,1067
7,101,0,1,40,4,5,5,2,5,1,0,847
7,102,0,1,41,4,3,2,2,1,1,0,767
7,103,0,1,42,4,3,1,2,1,1,0,1007
7,104,0,1,43,4,2,1,2,1,1,0,1308
7,105,0,1,44,4,4,5,2,5,1,0,969
7,106,0,1,45,4,2,2,2,1,1,0,993
7,107,0,1,46,4,6,5,2,5,1,0,1087
7,108,0,1,47,4,5,6,2,5,1,0,1223
7,109,0,1,48,4,2,2,2,1,1,0,1329
7,110,0,1,49,4,2,1,2,1,1,0,692
7,111,0,1,50,4,5,1,2,5,1,0,1062
7,112,0,1,51,4,3,1,2,1,1,0,984
7,113,0,1,52,4,2,2,2,1,1,0,717
7,114,0,1,53,4,3,3,2,1,1,0,1743
7,115,0,1,54,4,3,2,2,1,1,0,713
7,116,0,1,55,4,5,5,2,5,1,0,1030
7,117,0,1,56,4,3,3,2,1,1,0,708
7,118,0,1,57,4,4,1,2,5,1,0,2442
7,119,0,1,58,4,3,1,2,1,1,0,1559
7,120,0,1,59,4,1,6,2,1,1,0,1396
7,121,0,1,60,4,1,2,2,1,1,0,1656
7,122,0,1,61,4,4,5,2,5,1,0,1156
7,123,0,1,62,4,2,2,2,1,1,0,1447
7,124,0,1,63,4,5,3,2,5,1,0,1285
7,125,0,1,64,4,2,2,2,1,1,0,840
7,126,0,1,65,4,6,6,2,5,1,0,1665
7,127,0,1,66,4,3,4,2,1,1,0,2092
7,128,0,1,67,4,3,2,2,1,1,0,1586
7,129,0,1,68,4,2,6,2,1,1,0,1099
7,130,0,1,69,4,6,2,2,5,1,0,1665
7,131,0,1,70,4,5,6,2,5,1,0,1317
7,132,0,1,71,4,1,3,2,1,1,0,2115
7,133,0,1,72,4,6,6,2,5,1,0,1675
7,134,0,1,73,4,5,6,2,5,1,0,662
7,135,0,1,74,4,3,4,2,1,1,0,1487
7,136,0,1,75,4,2,2,2,1,1,0,2572
7,137,0,1,76,4,2,6,2,1,1,0,1175
7,138,0,1,77,4,5,4,2,5,1,0,1393
7,139,0,1,78,4,3,4,2,1,1,0,834
7,140,0,1,79,4,3,6,2,1,1,0,1700
7,141,0,1,80,4,2,2,2,1,1,0,1804
7,142,0,1,81,4,1,5,2,1,1,0,1471
7,143,0,1,82,4,1,6,2,1,1,0,1847
7,144,0,1,83,4,3,3,2,1,1,0,1728
7,145,0,1,84,4,6,4,2,5,1,0,863
7,146,0,1,85,4,3,6,2,1,1,0,1570
7,147,0,1,86,4,1,3,2,1,1,0,1453
7,148,0,1,87,4,2,1,2,1,1,0,1549
7,149,0,1,88,4,3,4,2,1,1,0,1662
7,150,0,1,89,4,5,3,2,5,1,0,1390
7,151,0,1,90,4,3,4,2,5,0,0,639
7,152,0,1,91,4,6,6,2,5,1,0,1489
7,153,0,1,92,4,5,3,2,5,1,0,601
7,154,0,1,93,4,6,6,2,5,1,0,477
7,155,0,1,94,4,3,2,2,1,1,0,1432
7,156,0,1,95,4,1,3,2,1,1,0,744
7,157,0,1,96,4,4,3,2,5,1,0,1599
7,158,0,1,97,4,2,5,2,1,1,0,1337
7,159,0,1,98,4,1,4,2,1,1,0,1563
7,160,0,1,99,4,6,5,2,5,1,0,1405
7,161,0,1,100,4,5,1,2,5,1,0,1651
7,162,0,1,101,4,4,2,2,5,1,0,1466
7,163,0,1,102,4,5,3,2,5,1,0,1624
7,164,0,1,103,4,4,4,2,5,1,0,1810
7,165,0,1,104,4,3,4,2,1,1,0,1363
7,166,0,1,105,4,1,3,2,1,1,0,1387
7,167,0,1,106,4,2,3,2,1,1,0,1508
7,168,0,1,107,4,3,4,2,1,1,0,647
7,169,0,1,0,1,1,6,4,6,1,1,1898
7,170,0,1,1,1,5,1,4,8,1,0,1580
7,171,0,1,2,1,1,1,4,6,1,0,2002
7,172,0,1,3,1,2,4,4,6,1,0,1316
7,173,0,1,4,1,6,5,4,8,0,0,1897
7,174,0,1,5,1,1,6,4,6,0,0,1641
7,175,0,1,6,1,4,4,4,6,0,0,3295
7,176,0,1,7,1,6,4,4,6,1,0,29108
7,177,0,1,0,2,5,4,3,2,1,1,7183
7,178,0,1,1,2,4,4,3,2,0,0,1320
7,179,0,1,2,2,2,6,3,2,1,0,1204
7,180,0,1,3,2,2,2,3,2,0,0,2821
7,181,0,1,4,2,4,1,3,3,1,0,1721
7,182,0,1,5,2,5,1,3,3,0,0,1343
7,183,0,1,6,2,5,1,3,3,0,0,1924
7,184,0,1,7,2,4,2,3,2,0,0,363
7,185,0,1,0,4,6,2,2,5,1,1,1668
7,186,0,1,1,4,3,5,2,5,0,0,1009
7,187,0,1,2,4,6,4,2,1,0,0,1723
7,188,0,1,3,4,1,4,2,1,1,0,2211
7,189,0,1,4,4,5,3,2,5,1,0,14941
7,190,0,1,5,4,4,1,2,5,1,0,11680
7,191,0,1,6,4,6,4,2,5,1,0,1094
7,192,0,1,7,4,4,5,2,5,1,0,12440
7,193,0,1,8,4,4,4,2,5,1,0,292
7,194,0,1,9,4,4,5,2,5,1,0,557
7,195,0,1,10,4,5,5,2,5,1,0,1416
7,196,0,1,11,4,4,3,2,1,0,0,3635
7,197,0,1,12,4,5,6,2,5,1,0,1625
7,198,0,1,13,4,3,3,2,1,1,0,1651
7,199,0,1,14,4,5,6,2,5,1,0,868
7,200,0,1,15,4,6,6,2,5,1,0,1494
7,201,0,1,16,4,4,2,2,5,1,0,1758
7,202,0,1,17,4,5,4,2,5,1,0,2409
7,203,0,1,18,4,2,1,2,1,1,0,1386
7,204,0,1,19,4,4,4,2,5,1,0,1932
7,205,0,1,20,4,1,5,2,1,1,0,1439
7,206,0,1,21,4,1,2,2,1,1,0,1343
7,207,0,1,22,4,2,2,2,1,1,0,1843
7,208,0,1,23,4,2,3,2,1,1,0,334
7,209,0,1,24,4,4,3,2,5,1,0,1801
7,210,0,1,25,4,5,5,2,5,1,0,3666
7,211,0,1,26,4,6,5,2,5,1,0,1539
7,212,0,1,27,4,1,1,2,1,1,0,1485
7,213,0,1,28,4,1,5,2,1,1,0,686
7,214,0,1,29,4,3,5,2,5,0,0,1362
7,215,0,1,30,4,6,2,2,5,1,0,1198
7,216,0,1,31,4,1,2,2,1,1,0,814
7,217,0,1,32,4,4,1,2,5,1,0,1497
7,218,0,1,33,4,1,6,2,1,1,0,2102
7,219,0,1,34,4,4,3,2,5,1,0,1539
7,220,0,1,35,4,1,5,2,1,1,0,563
7,221,0,1,36,4,4,1,2,5,1,0,1139
7,222,0,1,37,4,5,3,2,5,1,0,1708
7,223,0,1,38,4,3,4,2,1,1,0,1487
7,224,0,1,39,4,5,4,2,5,1,0,1523
7,225,0,1,40,4,5,1,2,5,1,0,1526
7,226,0,1,41,4,3,1,2,1,1,0,2195
7,227,0,1,42,4,3,1,2,1,1,0,554
7,228,0,1,43,4,6,1,2,5,1,0,2056
7,229,0,1,44,4,6,6,2,5,1,0,2939
7,230,0,1,45,4,2,5,2,1,1,0,2353
7,231,0,1,46,4,6,4,2,5,1,0,1629
7,232,0,1,0,2,3,5,3,2,1,1,1908
7,233,0,1,1,2,5,4,3,2,1,0,4296
7,234,0,1,2,2,4,3,3,3,1,0,1753
7,235,0,1,3,2,4,4,3,3,1,0,3695
7,236,0,1,4,2,5,2,3,3,0,0,1957
7,237,0,1,5,2,2,1,3,2,0,0,1460
7,238,0,1,6,2,1,5,3,2,1,0,1451
7,239,0,1,7,2,3,3,3,3,1,0,2896
7,240,0,1,8,2,5,3,3,3,0,0,1997
7,241,0,1,0,3,5,1,1,7,0,1,762
7,242,0,1,1,3,2,1,1,4,0,0,1451
7,243,0,1,2,3,2,1,1,4,0,0,905
7,244,0,1,3,3,1,1,1,7,1,0,1974
7,245,0,1,4,3,5,1,1,4,1,0,1039
7,246,0,1,5,3,4,1,1,4,1,0,1796
7,247,0,1,6,3,3,1,1,4,1,0,2088
7,248,0,1,7,3,5,1,1,4,1,0,962
7,249,0,1,8,3,1,1,1,7,1,0,559
7,250,0,1,9,3,2,1,1,7,1,0,1222
7,251,0,1,10,3,3,1,1,4,1,0,671
7,252,0,1,11,3,3,1,1,4,1,0,527
7,253,0,1,12,3,3,1,1,4,1,0,564
7,254,0,1,13,3,6,1,1,4,1,0,2182
7,255,0,1,14,3,5,1,1,4,1,0,1435
7,256,0,1,15,3,5,1,1,4,1,0,676
7,257,0,1,16,3,6,1,1,4,1,0,718
7,258,0,1,17,3,5,1,1,4,1,0,698
7,259,0,1,18,3,1,1,1,7,1,0,1724
7,260,0,1,19,3,1,1,1,7,1,0,817
7,261,0,1,20,3,5,1,1,4,1,0,718
7,262,0,1,21,3,2,1,1,4,0,0,1379
7,263,0,1,22,3,5,1,1,4,1,0,1328
7,264,0,1,23,3,4,1,1,4,1,0,1436
7,265,0,1,24,3,2,1,1,4,0,0,844
7,266,0,1,25,3,2,1,1,4,0,0,1486
7,267,0,1,26,3,1,1,1,7,1,0,823
7,268,0,1,27,3,5,1,1,4,1,0,722
7,269,0,1,28,3,5,1,1,4,1,0,651
7,270,0,1,29,3,3,1,1,7,0,0,1769
7,271,0,1,30,3,1,1,1,7,1,0,1667
7,272,0,1,31,3,4,1,1,4,1,0,13640
7,273,0,1,32,3,2,1,1,4,0,0,1019
7,274,0,1,0,4,3,5,2,5,0,1,1396
7,275,0,1,1,4,2,2,2,5,0,0,12181
7,276,0,1,2,4,2,2,2,1,1,0,1375
7,277,0,1,3,4,6,1,2,5,1,0,1370
7,278,0,1,4,4,4,4,2,5,1,0,1912
7,279,0,1,5,4,5,5,2,5,1,0,1383
7,280,0,1,6,4,4,6,2,5,1,0,1395
7,281,0,1,7,4,5,1,2,5,1,0,1296
7,282,0,1,8,4,1,1,2,1,1,0,1234
7,283,0,1,9,4,1,2,2,1,1,0,1237
7,284,0,1,10,4,1,2,2,1,1,0,512
7,285,0,1,11,4,1,1,2,1,1,0,511
7,286,0,1,12,4,2,6,2,1,1,0,1373
7,287,0,1,13,4,2,4,2,1,1,0,1623
7,288,0,1,14,4,3,1,2,1,1,0,1292
7,289,0,1,15,4,3,5,2,1,1,0,618
7,290,0,1,16,4,2,5,2,1,1,0,1356
7,291,0,1,17,4,4,2,2,5,1,0,1567
7,292,0,1,18,4,1,6,2,1,1,0,1593
7,293,0,1,19,4,5,5,2,5,1,0,1490
7,294,0,1,20,4,5,5,2,5,1,0,726
7,295,0,1,21,4,3,1,2,1,1,0,1647
7,296,0,1,22,4,1,4,2,1,1,0,1499
7,297,0,1,23,4,5,3,2,5,1,0,1784
7,298,0,1,24,4,1,3,2,1,1,0,1451
7,299,0,1,25,4,2,6,2,1,1,0,1415
7,300,0,1,26,4,3,3,2,1,1,0,2061
7,301,0,1,27,4,3,2,2,1,1,0,1475
7,302,0,1,28,4,2,6,2,1,1,0,618
7,303,0,1,29,4,3,4,2,1,1,0,1763
7,304,0,1,30,4,3,6,2,1,1,0,1929
7,305,0,1,31,4,1,5,2,1,1,0,1604
7,306,0,1,32,4,4,1,2,5,1,0,1641
7,307,0,1,33,4,6,3,2,5,1,0,1649
7,308,0,1,34,4,5,5,2,5,1,0,1757
7,309,0,1,35,4,4,5,2,5,1,0,1552
7,310,0,1,36,4,4,2,2,5,1,0,1594
7,311,0,2,0,2,1,3,3,2,0,1,1577
7,312,0,2,1,2,1,2,3,3,1,0,1587
7,313,0,2,2,2,4,5,3,2,1,0,1751
7,314,0,2,3,2,3,5,3,2,1,0,2406
7,315,0,2,4,2,2,3,3,3,1,0,1436
7,316,0,2,5,2,5,4,3,3,0,0,1810
7,317,0,2,6,2,6,2,3,2,1,0,12220
7,318,0,2,7,2,1,2,3,2,0,0,1253
7,319,0,2,8,2,2,3,3,3,1,0,422
7,320,0,2,9,2,3,6,3,3,0,0,470
7,321,0,2,10,2,3,2,3,3,1,0,1570
7,322,0,2,11,2,3,1,3,3,1,0,1531
7,323,0,2,12,2,6,1,3,3,0,0,1439
7,324,0,2,13,2,1,1,3,3,1,0,1978
7,325,0,2,14,2,6,1,3,3,0,0,826
7,326,0,2,0,1,1,6,4,6,1,1,2387
7,327,0,2,1,1,1,5,4,6,0,0,984
7,328,0,2,2,1,5,4,4,8,0,0,1992
7,329,0,2,3,1,2,5,4,8,0,0,2295
7,330,0,2,4,1,2,5,4,6,0,0,724
7,331,0,2,5,1,1,2,4,6,1,0,1479
7,332,0,2,6,1,2,5,4,6,0,0,862
7,333,0,2,7,1,3,3,4,8,1,0,1786
7,334,0,2,8,1,2,3,4,8,0,0,854
7,335,0,2,9,1,3,5,4,8,1,0,2255
7,336,0,2,10,1,6,3,4,8,1,0,1550
7,337,0,2,11,1,4,3,4,8,1,0,1553
7,338,0,2,12,1,1,1,4,6,0,0,1620
7,339,0,2,13,1,1,1,4,8,0,0,569
7,340,0,2,14,1,5,6,4,8,1,0,2702
7,341,0,2,0,3,5,1,1,4,1,1,1898
7,342,0,2,1,3,4,1,1,4,1,0,1472
7,343,0,2,2,3,4,1,1,4,1,0,563
7,344,0,2,3,3,3,1,1,4,1,0,1535
7,345,0,2,4,3,5,1,1,4,1,0,709
7,346,0,2,5,3,1,1,1,7,1,0,1699
7,347,0,2,6,3,1,1,1,7,1,0,1128
7,348,0,2,7,3,4,1,1,4,1,0,1425
7,349,0,2,8,3,3,1,1,4,1,0,684
7,350,0,2,9,3,6,1,1,4,1,0,1265
7,351,0,2,10,3,2,1,1,4,0,0,1512
7,352,0,2,11,3,3,1,1,4,1,0,801
7,353,0,2,12,3,5,1,1,4,1,0,646
7,354,0,2,13,3,1,1,1,7,1,0,2565
7,355,0,2,14,3,1,1,1,7,1,0,793
7,356,0,2,0,4,3,5,2,5,0,1,1405
7,357,0,2,1,4,4,4,2,5,1,0,1203
7,358,0,2,2,4,6,6,2,5,1,0,1286
7,359,0,2,3,4,6,3,2,5,1,0,1279
7,360,0,2,4,4,5,3,2,5,1,0,1546
7,361,0,2,5,4,3,4,2,1,1,0,3084
7,362,0,2,6,4,1,2,2,1,1,0,2081
7,363,0,2,7,4,4,2,2,5,1,0,1210
7,364,0,2,8,4,4,2,2,5,1,0,791
7,365,0,2,9,4,4,2,2,5,1,0,678
7,366,0,2,10,4,2,6,2,1,1,0,1612
7,367,0,2,11,4,4,3,2,5,1,0,1680
7,368,0,2,12,4,1,1,2,1,1,0,1311
7,369,0,2,13,4,1,2,2,1,1,0,779
7,370,0,2,14,4,3,3,2,1,1,0,1457
8,1,1,0,0,3,1,1,1,7,1,1,4860
8,2,1,0,1,3,4,1,1,7,0,0,2203
8,3,1,0,2,3,5,1,1,4,1,0,2931
8,4,1,0,3,3,2,1,1,4,0,0,3105
8,5,1,0,4,3,2,1,1,4,0,0,1454
8,6,1,0,5,3,6,1,1,7,0,0,1023
8,7,1,0,6,3,1,1,1,7,1,0,1299
8,8,1,0,7,3,5,1,1,7,0,0,4096
8,9,1,0,8,3,5,1,1,4,1,0,2041
8,10,1,0,9,3,3,1,1,7,0,0,1814
8,11,1,0,10,3,3,1,1,4,1,0,1165
8,12,1,0,11,3,5,1,1,4,1,0,2120
8,13,1,0,12,3,5,1,1,4,1,0,1415
8,14,1,0,13,3,2,1,1,7,1,0,2186
8,15,1,0,14,3,6,1,1,4,1,0,2020
8,16,1,0,0,1,2,5,2,6,1,1,3942
8,17,1,0,1,1,5,1,2,8,1,0,2167
8,18,1,0,2,1,6,1,2,8,1,0,24422
8,19,1,0,3,1,5,3,2,6,0,0,2882
8,20,1,0,4,1,2,4,2,6,1,0,1624
8,21,1,0,5,1,4,2,2,8,1,0,1463
8,22,1,0,6,1,1,2,2,6,1,0,1561
8,23,1,0,7,1,6,3,2,8,1,0,1382
8,24,1,0,8,1,2,3,2,6,1,0,1469
8,25,1,0,9,1,4,1,2,8,1,0,1585
8,26,1,0,10,1,5,2,2,8,1,0,1562
8,27,1,0,11,1,3,5,2,6,1,0,1494
8,28,1,0,12,1,6,2,2,8,1,0,1360
8,29,1,0,13,1,3,5,2,6,1,0,2375
8,30,1,0,14,1,1,5,2,6,1,0,1785
8,31,1,0,0,2,1,1,3,3,1,1,2116
8,32,1,0,1,2,4,5,3,2,1,0,1619
8,33,1,0,2,2,4,1,3,3,1,0,1504
8,34,1,0,3,2,3,2,3,2,0,0,1524
8,35,1,0,4,2,2,3,3,2,0,0,1783
8,36,1,0,5,2,6,2,3,3,0,0,2912
8,37,1,0,6,2,1,6,3,2,1,0,1957
8,38,1,0,7,2,1,5,3,2,1,0,1512
8,39,1,0,8,2,3,3,3,2,0,0,1730
8,40,1,0,9,2,5,3,3,3,0,0,1243
8,41,1,0,10,2,2,6,3,2,1,0,1427
8,42,1,0,11,2,5,5,3,2,1,0,1391
8,43,1,0,12,2,5,5,3,2,1,0,1289
8,44,1,0,13,2,2,6,3,2,1,0,1267
8,45,1,0,14,2,3,1,3,3,1,0,1522
8,46,1,0,0,4,5,1,4,5,0,1,2636
8,47,1,0,1,4,2,3,4,5,0,0,1507
8,48,1,0,2,4,6,2,4,1,0,0,2065
8,49,1,0,3,4,3,6,4,1,0,0,2053
8,50,1,0,4,4,2,4,4,1,0,0,2043
8,51,1,0,5,4,5,6,4,5,1,0,1545
8,52,1,0,6,4,3,6,4,5,0,0,1137
8,53,1,0,7,4,5,4,4,5,0,0,1821
8,54,1,0,8,4,1,5,4,1,0,0,1500
8,55,1,0,9,4,3,6,4,5,0,0,1399
8,56,1,0,10,4,3,6,4,1,0,0,1299
8,57,1,0,11,4,2,1,4,1,1,0,1554
8,58,1,0,12,4,2,5,4,1,0,0,1615
8,59,1,0,13,4,6,5,4,1,0,0,1717
8,60,1,0,14,4,4,4,4,1,1,0,1394
8,61,1,1,0,1,2,5,2,6,1,1,2802
8,62,1,1,1,1,1,4,2,6,1,0,1805
8,63,1,1,2,1,2,3,2,6,1,0,3633
8,64,1,1,3,1,2,4,2,6,1,0,1364
8,65,1,1,4,1,5,3,2,8,1,0,1422
8,66,1,1,5,1,5,5,2,8,1,0,1402
8,67,1,1,6,1,3,1,2,8,0,0,1566
8,68,1,1,7,1,2,6,2,6,1,0,1356
8,69,1,1,8,1,5,3,2,8,1,0,1407
8,70,1,1,9,1,6,1,2,8,1,0,1510
8,71,1,1,10,1,6,5,2,8,1,0,1588
8,72,1,1,11,1,5,3,2,8,1,0,1518
8,73,1,1,12,1,5,3,2,8,1,0,1445
8,74,1,1,13,1,3,4,2,6,1,0,1558
8,75,1,1,14,1,4,6,2,6,0,0,1487
8,76,1,1,15,1,4,4,2,8,1,0,2237
8,77,1,1,16,1,1,6,2,6,1,0,1485
8,78,1,1,0,4,6,6,4,1,0,1,1620
8,79,1,1,1,4,3,5,4,5,1,0,2292
8,80,1,1,2,4,2,1,4,5,1,0,1268
8,81,1,1,3,4,5,4,4,5,0,0,1508
8,82,1,1,4,4,4,6,4,5,0,0,1301
8,83,1,1,5,4,3,3,4,5,0,0,1750
8,84,1,1,6,4,6,6,4,1,1,0,1557
8,85,1,1,7,4,6,2,4,1,0,0,1254
8,86,1,1,8,4,4,2,4,1,1,0,1245
8,87,1,1,9,4,4,5,4,1,1,0,1255
8,88,1,1,10,4,6,2,4,5,0,0,2559
8,89,1,1,11,4,2,5,4,1,0,0,1474
8,90,1,1,12,4,3,6,4,5,1,0,1383
8,91,1,1,13,4,4,6,4,5,0,0,2102
8,92,1,1,14,4,5,6,4,5,0,0,1256
8,93,1,1,15,4,4,4,4,1,1,0,757
8,94,1,1,16,4,5,4,4,1,1,0,924
8,95,1,1,17,4,1,1,4,5,0,0,1502
8,96,1,1,18,4,2,2,4,1,0,0,1375
8,97,1,1,19,4,1,1,4,1,0,0,1613
8,98,1,1,20,4,5,4,4,5,1,0,1482
8,99,1,1,21,4,6,1,4,5,1,0,1515
8,100,1,1,22,4,3,4,4,1,0,0,1973
8,101,1,1,23,4,5,2,4,5,0,0,1660
8,102,1,1,24,4,5,1,4,1,1,0,1325
8,103,1,1,25,4,3,5,4,1,1,0,1459
8,104,1,1,26,4,2,2,4,1,1,0,1419
8,105,1,1,27,4,1,5,4,1,0,0,1190
8,106,1,1,28,4,2,6,4,1,0,0,1380
8,107,1,1,29,4,5,3,4,5,0,0,1535
8,108,1,1,30,4,4,5,4,1,0,0,805
8,109,1,1,0,2,5,3,3,2,1,1,2202
8,110,1,1,1,2,4,2,3,2,0,0,1220
8,111,1,1,2,2,4,5,3,2,1,0,1278
8,112,1,1,3,2,6,5,3,2,1,0,1323
8,113,1,1,4,2,3,1,3,3,1,0,1488
8,114,1,1,5,2,2,5,3,2,1,0,1514
8,115,1,1,6,2,6,3,3,3,0,0,1390
8,116,1,1,7,2,4,6,3,2,1,0,1387
8,117,1,1,8,2,1,6,3,2,1,0,1662
8,118,1,1,9,2,1,3,3,3,1,0,1921
8,119,1,1,10,2,4,1,3,3,1,0,1454
8,120,1,1,11,2,6,6,3,2,1,0,1237
8,121,1,1,12,2,1,5,3,2,1,0,1403
8,122,1,1,13,2,2,6,3,2,1,0,1134
8,123,1,1,14,2,5,6,3,2,1,0,1263
8,124,1,1,15,2,2,2,3,3,1,0,1108
8,125,1,1,16,2,5,4,3,2,1,0,1256
8,126,1,1,17,2,3,1,3,3,1,0,1325
8,127,1,1,18,2,5,6,3,2,1,0,1060
8,128,1,1,19,2,1,4,3,3,1,0,1185
8,129,1,1,20,2,6,5,3,2,1,0,1280
8,130,1,1,21,2,2,5,3,2,1,0,1243
8,131,1,1,22,2,6,6,3,2,1,0,1321
8,132,1,1,23,2,4,3,3,3,1,0,1407
8,133,1,1,24,2,4,2,3,3,1,0,1162
8,134,1,1,0,3,1,1,1,4,0,1,4247
8,135,1,1,1,3,6,1,1,4,1,0,1796
8,136,1,1,2,3,6,1,1,4,1,0,1502
8,137,1,1,3,3,2,1,1,7,1,0,1269
8,138,1,1,4,3,6,1,1,4,1,0,1061
8,139,1,1,5,3,2,1,1,7,1,0,1196
8,140,1,1,6,3,2,1,1,7,1,0,1059
8,141,1,1,7,3,5,1,1,4,1,0,1300
8,142,1,1,8,3,3,1,1,7,0,0,1223
8,143,1,1,9,3,4,1,1,4,1,0,1570
8,144,1,1,10,3,2,1,1,4,0,0,1258
8,145,1,1,11,3,1,1,1,7,1,0,1451
8,146,1,1,12,3,2,1,1,4,0,0,1461
8,147,1,1,13,3,5,1,1,4,1,0,1376
8,148,1,1,14,3,3,1,1,4,1,0,1323
8,149,1,1,15,3,6,1,1,4,1,0,1361
8,150,1,1,16,3,2,1,1,7,1,0,1481
8,151,1,1,17,3,4,1,1,4,1,0,1466
8,152,1,1,18,3,6,1,1,4,1,0,1145
8,153,1,1,19,3,6,1,1,4,1,0,1091
8,154,1,1,20,3,5,1,1,4,1,0,1075
8,155,1,1,21,3,6,1,1,4,1,0,1462
8,156,1,1,22,3,1,1,1,7,1,0,1417
8,157,1,1,23,3,1,1,1,7,1,0,1217
8,158,1,1,24,3,1,1,1,7,1,0,1054
8,159,1,1,25,3,5,1,1,4,1,0,1218
8,160,1,1,26,3,1,1,1,7,1,0,1072
8,161,1,1,27,3,3,1,1,7,0,0,1291
8,162,1,1,28,3,1,1,1,7,1,0,1310
8,163,1,1,29,3,1,1,1,7,1,0,1159
8,164,1,1,30,3,6,1,1,4,1,0,1107
8,165,1,1,31,3,1,1,1,7,1,0,1390
8,166,1,1,32,3,4,1,1,4,1,0,1358
8,167,1,1,33,3,2,1,1,7,1,0,1334
8,168,1,1,34,3,3,1,1,4,1,0,1349
8,169,1,1,35,3,5,1,1,4,1,0,1270
8,170,1,1,36,3,5,1,1,4,1,0,950
8,171,1,1,37,3,5,1,1,4,1,0,1022
8,172,1,1,38,3,2,1,1,7,1,0,1237
8,173,1,1,39,3,5,1,1,4,1,0,1166
8,174,1,1,40,3,5,1,1,4,1,0,1152
8,175,1,1,41,3,1,1,1,7,1,0,1908
8,176,1,1,0,1,6,5,2,8,1,1,1639
8,177,1,1,1,1,6,1,2,8,1,0,1280
8,178,1,1,2,1,5,4,2,8,1,0,1366
8,179,1,1,3,1,3,2,2,8,0,0,1460
8,180,1,1,4,1,2,3,2,6,1,0,1175
8,181,1,1,5,1,4,3,2,8,1,0,1292
8,182,1,1,6,1,2,1,2,6,1,0,1427
8,183,1,1,7,1,1,3,2,6,1,0,1237
8,184,1,1,8,1,4,5,2,8,1,0,1394
8,185,1,1,9,1,5,3,2,8,1,0,1244
8,186,1,1,10,1,5,6,2,8,1,0,1483
8,187,1,1,11,1,5,6,2,8,1,0,1181
8,188,1,1,12,1,5,1,2,8,1,0,1503
8,189,1,1,13,1,1,3,2,6,1,0,1017
8,190,1,1,14,1,5,4,2,8,1,0,1228
8,191,1,1,15,1,5,2,2,8,1,0,1185
8,192,1,1,16,1,6,1,2,8,1,0,1177
8,193,1,1,17,1,3,3,2,6,1,0,1318
8,194,1,1,18,1,3,4,2,6,1,0,1078
8,195,1,1,19,1,1,2,2,6,1,0,1153
8,196,1,1,20,1,5,2,2,8,1,0,1031
8,197,1,1,21,1,4,6,2,6,0,0,1336
8,198,1,1,22,1,1,6,2,6,1,0,1851
8,199,1,1,23,1,3,4,2,6,1,0,1149
8,200,1,1,24,1,6,1,2,8,1,0,1212
8,201,1,1,25,1,4,2,2,6,0,0,1415
8,202,1,1,26,1,4,1,2,8,1,0,1404
8,203,1,1,27,1,5,6,2,8,1,0,1304
8,204,1,1,28,1,6,5,2,8,1,0,1510
8,205,1,1,29,1,3,5,2,6,1,0,2767
8,206,1,1,30,1,5,2,2,8,1,0,1199
8,207,1,1,31,1,6,1,2,8,1,0,1345
8,208,1,1,32,1,2,5,2,6,1,0,1151
8,209,1,1,33,1,1,1,2,6,1,0,1100
8,210,1,1,34,1,6,2,2,8,1,0,1157
8,211,1,1,35,1,1,2,2,6,1,0,1643
8,212,1,1,36,1,3,2,2,6,1,0,1725
8,213,1,1,37,1,2,1,2,6,1,0,1202
8,214,1,1,38,1,6,3,2,8,1,0,1316
8,215,1,1,39,1,5,2,2,8,1,0,1311
8,216,1,1,40,1,4,2,2,8,1,0,1342
8,217,1,1,41,1,3,4,2,6,1,0,1177
8,218,1,1,42,1,4,3,2,8,1,0,1739
8,219,1,1,43,1,3,4,2,6,1,0,1630
8,220,1,1,0,2,1,4,3,2,0,1,2601
8,221,1,1,1,2,2,4,3,3,1,0,1207
8,222,1,1,2,2,2,1,3,2,0,0,1286
8,223,1,1,3,2,1,1,3,3,1,0,1319
8,224,1,1,4,2,3,2,3,2,0,0,1818
8,225,1,1,5,2,5,3,3,3,0,0,1888
8,226,1,1,6,2,6,3,3,2,1,0,1195
8,227,1,1,7,2,3,5,3,2,1,0,1170
8,228,1,1,8,2,2,2,3,3,1,0,1285
8,229,1,1,9,2,1,2,3,3,1,0,1234
8,230,1,1,10,2,1,4,3,3,1,0,1653
8,231,1,1,11,2,1,4,3,3,1,0,1114
8,232,1,1,12,2,3,5,3,2,1,0,1356
8,233,1,1,13,2,4,3,3,3,1,0,1212
8,234,1,1,14,2,2,1,3,3,1,0,1393
8,235,1,1,15,2,6,5,3,2,1,0,1719
8,236,1,1,16,2,3,4,3,3,1,0,1238
8,237,1,1,17,2,2,5,3,2,1,0,1354
8,238,1,1,18,2,4,6,3,2,1,0,1117
8,239,1,1,19,2,1,1,3,3,1,0,1198
8,240,1,1,20,2,2,4,3,3,1,0,1514
8,241,1,1,21,2,5,5,3,2,1,0,1349
8,242,1,1,22,2,1,1,3,3,1,0,1052
8,243,1,1,23,2,1,1,3,3,1,0,1082
8,244,1,1,24,2,1,4,3,3,1,0,1258
8,245,1,1,25,2,5,5,3,2,1,0,1018
8,246,1,1,26,2,4,6,3,2,1,0,1083
8,247,1,1,27,2,1,6,3,2,1,0,1284
8,248,1,1,28,2,1,2,3,3,1,0,1226
8,249,1,1,29,2,5,5,3,2,1,0,1214
8,250,1,1,30,2,4,5,3,2,1,0,1331
8,251,1,1,31,2,5,1,3,3,0,0,1308
8,252,1,1,32,2,5,5,3,2,1,0,1119
8,253,1,1,33,2,4,5,3,2,1,0,1171
8,254,1,1,34,2,6,5,3,2,1,0,1362
8,255,1,1,35,2,6,2,3,3,0,0,1139
8,256,1,1,36,2,4,2,3,3,1,0,2310
8,257,1,1,37,2,4,6,3,2,1,0,1549
8,258,1,1,38,2,2,2,3,3,1,0,1572
8,259,1,1,39,2,4,5,3,2,1,0,1281
